experiment,condition,subject,trial,cat,x,y,xt,yt,resp,rt,fb
2,relearn,1,0,B,40.22175143269257,73.5905381932684,2.0110875716346284,1.1559574708084555,102,4469,Incorrect
2,relearn,1,1,B,39.00931135753487,62.56846075369226,1.9504655678767435,0.9828230832511043,B,703,Correct
2,relearn,1,2,D,72.26756385481852,22.632349377347413,3.613378192740926,0.35550811268676086,C,805,Incorrect
2,relearn,1,3,D,45.73260119795657,29.139255346665514,2.2866300598978286,0.45771835264080746,B,917,Incorrect
2,relearn,1,4,B,57.527095278336276,56.394567082879874,2.876354763916814,0.885843788249761,B,926,Correct
2,relearn,1,5,B,73.40223080088751,80.72780086726421,3.670111540044376,1.2680693307252848,D,1103,Incorrect
2,relearn,1,6,B,55.65042332767846,65.36387000859955,2.782521166383923,1.0267332691460729,B,1212,Correct
2,relearn,1,7,A,20.002944712242517,75.76408804485558,1.0001472356121257,1.190099512038243,D,1830,Incorrect
2,relearn,1,8,C,64.03280429382121,29.902373664678212,3.2016402146910603,0.4697053871492498,A,842,Incorrect
2,relearn,1,9,D,57.830560509049256,5.359942392684957,2.891528025452463,0.0841937782226178,C,1008,Incorrect
2,relearn,1,10,B,39.83769277759062,96.5104508735277,1.991884638879531,1.5159826172945663,D,860,Incorrect
2,relearn,1,11,D,47.730485466679085,29.110369852501567,2.3865242733339542,0.45726462035950355,B,935,Incorrect
2,relearn,1,12,A,38.84592096194308,33.072174086806456,1.942296048097154,0.5194964957467695,B,484,Incorrect
2,relearn,1,13,B,39.75617002842948,98.65687711435868,1.9878085014214741,1.549698601842901,A,1204,Incorrect
2,relearn,1,14,B,41.77390327658223,57.14963078903541,2.0886951638291116,0.8977043012110134,C,580,Incorrect
2,relearn,1,15,B,55.640503210199874,74.24777722456025,2.7820251605099937,1.1662813573702502,C,526,Incorrect
2,relearn,1,16,A,2.8436539267791723,62.05754727001425,0.1421826963389586,0.9747976730163905,A,1343,Correct
2,relearn,1,17,B,55.53163509098969,82.8884196026024,2.7765817545494844,1.3020082504560195,B,814,Correct
2,relearn,1,18,C,67.70918935157323,72.92649881909034,3.3854594675786616,1.1455267647103948,C,1011,Correct
2,relearn,1,19,C,72.4301037500407,41.556519728530766,3.621505187502035,0.6527682854395579,D,629,Incorrect
2,relearn,1,20,A,35.4372444761141,71.28728039796971,1.7718622238057051,1.1197779819632865,B,1463,Incorrect
2,relearn,1,21,A,34.196229348163705,48.02841646371863,1.7098114674081852,0.7544286016298476,A,629,Correct
2,relearn,1,22,D,55.35985071791622,41.87424891313344,2.767992535895811,0.6577591638004521,B,676,Incorrect
2,relearn,1,23,D,44.64351448787579,33.97475059225749,2.2321757243937896,0.5336741343409079,B,868,Incorrect
2,relearn,1,24,A,4.052250933054172,46.58540092845891,0.20261254665270859,0.7317617666069082,A,799,Correct
2,relearn,1,25,A,23.376539271644134,47.12056975172146,1.1688269635822066,0.7401681788248679,B,454,Incorrect
2,relearn,1,26,B,68.69115993570833,57.44492778168102,3.4345579967854167,0.9023428155246265,C,1110,Incorrect
2,relearn,1,27,D,58.56763749376418,43.93770886101727,2.9283818746882093,0.6901719168666951,D,718,Correct
2,relearn,1,28,A,9.392756209335888,57.03048509980016,0.46963781046679437,0.8958327651009717,A,549,Correct
2,relearn,1,29,C,70.82676135409628,34.80916797768135,3.541338067704814,0.546781131981284,C,1709,Correct
2,relearn,1,30,C,72.15314577256294,61.6930893525833,3.607657288628147,0.969072781436672,D,1079,Incorrect
2,relearn,1,31,C,74.80519091998809,26.090194394475056,3.740259545999405,0.4098238152020622,C,685,Correct
2,relearn,1,32,B,51.98606976748486,78.7898504677226,2.5993034883742427,1.2376280770341783,C,878,Incorrect
2,relearn,1,33,C,69.47207402866651,73.21094040287252,3.4736037014333254,1.1499947626603226,D,942,Incorrect
2,relearn,1,34,A,26.46342283243696,29.19801366438358,1.323171141621848,0.45864132613720926,A,1119,Correct
2,relearn,1,35,D,36.795766325226666,27.65696177994543,1.8397883162613333,0.4344345397424512,A,758,Incorrect
2,relearn,1,36,B,40.347368757668235,63.46873923608762,2.0173684378834116,0.9969646245834957,A,820,Incorrect
2,relearn,1,37,A,32.54811346088003,56.154712656103634,1.6274056730440014,0.8820761637243049,A,752,Correct
2,relearn,1,38,C,89.34819374295252,60.0199371566984,4.467409687147626,0.9427909682020237,C,1029,Correct
2,relearn,1,39,A,39.978201587427314,30.89881316638424,1.9989100793713659,0.48535742224078154,B,1118,Incorrect
2,relearn,1,40,C,92.03378768390185,67.52937063475758,4.601689384195092,1.0607488734384836,B,1037,Incorrect
2,relearn,1,41,D,68.68249295006488,6.595871132185689,3.4341246475032445,0.10360770146449776,B,695,Incorrect
2,relearn,1,42,A,8.35826762217022,36.721377471869275,0.417913381108511,0.5768180484766112,A,700,Correct
2,relearn,1,43,C,58.08555349295433,61.30104068688702,2.9042776746477164,0.9629144953966663,A,1678,Incorrect
2,relearn,1,44,C,72.20806049749325,52.68904214213021,3.6104030248746626,0.8276375385919965,B,893,Incorrect
2,relearn,1,45,D,27.451209044669667,34.171393791807546,1.3725604522334833,0.5367629984963322,A,766,Incorrect
2,relearn,1,46,D,62.56115795165935,23.839228703668283,3.128057897582967,0.374465728813456,B,735,Incorrect
2,relearn,1,47,C,87.90602191901377,58.926338908889406,4.395301095950688,0.9256127670955466,C,532,Correct
2,relearn,1,48,A,19.816705112710622,58.60822443254723,0.9908352556355311,0.9206158365861612,A,694,Correct
2,relearn,1,49,B,42.88164322849034,85.95072093848641,2.144082161424517,1.3501107673554766,B,951,Correct
2,relearn,1,50,A,18.230929378796134,47.75681823939798,0.9115464689398067,0.7501623466985787,A,804,Correct
2,relearn,1,51,A,2.4212255460546395,55.71830981173626,0.12106127730273197,0.8752211638749536,A,702,Correct
2,relearn,1,52,A,42.66230757444848,67.68688589775132,2.1331153787224237,1.0632231174037305,C,750,Incorrect
2,relearn,1,53,D,48.703813872014585,9.776121739143415,2.4351906936007293,0.15356296118146212,C,684,Incorrect
2,relearn,1,54,B,64.66161612208005,56.171736970952225,3.2330808061040024,0.8823435810366085,C,981,Incorrect
2,relearn,1,55,D,42.646930149735375,12.127877715429067,2.1323465074867687,0.19050425767213658,B,966,Incorrect
2,relearn,1,56,A,34.97735784745038,53.48374694165204,1.748867892372519,0.8401207323917481,A,507,Correct
2,relearn,1,57,A,14.910359971988786,39.47520190781255,0.7455179985994392,0.6200750215627884,A,653,Correct
2,relearn,1,58,C,60.67311622283924,33.044661430006826,3.0336558111419616,0.5190643279443572,D,1429,Incorrect
2,relearn,1,59,C,64.53362876743127,30.596905429694036,3.226681438371563,0.4806150666025422,B,1182,Incorrect
2,relearn,1,60,D,65.41573629392792,7.382721754667063,3.270786814696396,0.11596752213979797,B,815,Incorrect
2,relearn,1,61,B,41.7622675902378,78.30245933195941,2.08811337951189,1.2299721549764862,A,663,Incorrect
2,relearn,1,62,A,20.554482122487876,44.7177553199893,1.0277241061243938,0.7024248579915214,A,692,Correct
2,relearn,1,63,A,10.856863508051426,64.1957840575117,0.5428431754025713,1.0083850179325775,A,607,Correct
2,relearn,1,64,A,21.95819168575605,39.089263179154344,1.0979095842878024,0.6140127101893466,A,717,Correct
2,relearn,1,65,A,22.207736154885087,44.14419016943392,1.1103868077442542,0.6934153176748218,A,556,Correct
2,relearn,1,66,B,53.046993056237675,58.05579429326079,2.6523496528118837,0.9119382842501417,B,753,Correct
2,relearn,1,67,A,22.507374534928463,28.107001215372343,1.1253687267464232,0.4415037426632657,A,750,Correct
2,relearn,1,68,D,70.03960559873323,41.431966381657325,3.501980279936662,0.6508118060419696,B,700,Incorrect
2,relearn,1,69,C,87.87266215573246,57.92130200652026,4.393633107786623,0.9098256843501987,D,1150,Incorrect
2,relearn,1,70,C,60.276850502200176,34.755982668788576,3.013842525110009,0.5459456991028018,C,459,Correct
2,relearn,1,71,A,45.15141881596514,36.36173198923674,2.257570940798257,0.5711687504459355,B,992,Incorrect
2,relearn,1,72,D,61.33198804209195,40.053346600953276,3.0665994021045977,0.6291564971662026,C,613,Incorrect
2,relearn,1,73,D,69.86170549352445,18.82304200084078,3.493085274676223,0.29567165234026754,C,671,Incorrect
2,relearn,1,74,C,93.50129027262649,53.67907883821692,4.675064513631324,0.843188998648048,C,588,Correct
2,relearn,1,75,D,70.47923099583457,8.892209552961035,3.523961549791728,0.13967850102881682,D,976,Correct
2,relearn,1,76,D,61.81367075851945,13.642475005040868,3.0906835379259725,0.2142954962630938,C,1023,Incorrect
2,relearn,1,77,B,29.21392569627658,62.221908687218516,1.460696284813829,0.977379456120503,A,1315,Incorrect
2,relearn,1,78,C,94.40189679708459,66.14811280441356,4.720094839854229,1.039052126175873,D,1005,Incorrect
2,relearn,1,79,A,7.22747889333187,31.961005776879418,0.3613739446665935,0.5020423047499266,A,593,Correct
2,relearn,1,80,A,40.524019522720614,30.45189735189924,2.0262009761360305,0.4783372850429857,B,724,Incorrect
2,relearn,1,81,B,40.48703120110938,69.63318599403199,2.024351560055469,1.0937955278245128,B,742,Correct
2,relearn,1,82,C,83.11308004235552,53.313574255107554,4.155654002117776,0.837447666082299,D,1050,Incorrect
2,relearn,1,83,B,57.68443704726314,51.03672009996658,2.8842218523631566,0.8016829246468677,C,695,Incorrect
2,relearn,1,84,A,34.347922992659385,31.90071632782567,1.7173961496329693,0.5010952802987454,A,678,Correct
2,relearn,1,85,D,67.32899360595692,15.433897665108878,3.3664496802978463,0.2424350976048136,C,1396,Incorrect
2,relearn,1,86,A,33.40393793494492,65.96825173105191,1.6701968967472458,1.036226875042174,D,824,Incorrect
2,relearn,1,87,A,0.6621127572879573,58.67078828329592,0.033105637864397866,0.9215985872556228,A,871,Correct
2,relearn,1,88,A,14.57226076477772,63.54886826827446,0.728613038238886,0.9982232884777827,A,670,Correct
2,relearn,1,89,B,38.34390113539633,61.83151418761151,1.9171950567698164,0.9712471536606668,B,694,Correct
2,relearn,1,90,C,94.98349487071071,51.809348192032076,4.749174743535536,0.8138193383368181,C,1180,Correct
2,relearn,1,91,C,59.52895523089205,59.61639032341919,2.9764477615446028,0.9364520693679768,C,1085,Correct
2,relearn,1,92,D,41.16342686074339,25.103614018817115,2.0581713430371695,0.394326646900348,B,1037,Incorrect
2,relearn,1,93,C,97.21126880216312,64.80460244858872,4.860563440108155,1.0179483148564672,C,2608,Correct
2,relearn,1,94,C,52.80899363043223,55.69160540801108,2.640449681521611,0.874801692082146,A,2044,Incorrect
2,relearn,1,95,D,42.95745053746041,46.392954793097225,2.1478725268730203,0.728738829781588,B,2254,Incorrect
2,relearn,1,96,A,31.03080316211283,75.85571881653921,1.5515401581056414,1.1915388448340631,A,847,Correct
2,relearn,1,97,A,31.998967185499318,48.789215397771045,1.5999483592749657,0.7663792033402375,A,1526,Correct
2,relearn,1,98,A,32.468279816789234,32.66846350822354,1.6234139908394616,0.5131550248075065,A,747,Correct
2,relearn,1,99,D,53.05143533356024,10.967409243026966,2.652571766678012,0.17227566153403154,C,1423,Incorrect
2,relearn,1,100,A,21.62732208961752,27.332476172002405,1.081366104480876,0.4293375317319042,A,828,Correct
2,relearn,1,101,B,30.814830036854858,67.67085588807345,1.5407415018427428,1.0629713186005256,B,1119,Correct
2,relearn,1,102,C,68.04888191388828,35.20696659212914,3.402444095694414,0.5530297380050709,C,2204,Correct
2,relearn,1,103,D,44.05439383787513,34.432220885104805,2.2027196918937566,0.5408600608971315,C,1293,Incorrect
2,relearn,1,104,C,93.19855744603665,48.098463573890385,4.659927872301832,0.7555288990634514,C,1944,Correct
2,relearn,1,105,C,77.88779759506188,64.20279351423373,3.8943898797530943,1.0084951222212954,D,1158,Incorrect
2,relearn,1,106,C,92.23322069891117,68.72113714901448,4.611661034945558,1.0794690980684025,C,620,Correct
2,relearn,1,107,D,65.56524595835243,8.712952123401134,3.2782622979176215,0.13686273190978296,C,623,Incorrect
2,relearn,1,108,B,75.77757597688135,69.86553272789499,3.7888787988440673,1.097445221785461,C,759,Incorrect
2,relearn,1,109,C,78.30012151615895,41.19961651125945,3.9150060758079475,0.6471620628124471,D,692,Incorrect
2,relearn,1,110,B,44.655508845094445,78.24108054008002,2.2327754422547224,1.2290080191682136,A,956,Incorrect
2,relearn,1,111,C,99.95496747032264,44.724728120018945,4.997748373516132,0.7025343864782618,A,710,Incorrect
2,relearn,1,112,B,72.02399813382813,61.165853491859245,3.601199906691406,0.9607909799028729,C,303,Incorrect
2,relearn,1,113,C,56.204486405939264,58.96199463320277,2.8102243202969635,0.9261728459033531,C,584,Correct
2,relearn,1,114,C,98.50495777247583,40.87459453167969,4.925247888623792,0.6420566294959322,C,804,Correct
2,relearn,1,115,C,71.56976094921747,55.779855492520326,3.5784880474608736,0.8761879211680106,C,813,Correct
2,relearn,1,116,D,62.52689612615409,37.43341321036978,3.1263448063077046,0.588002679702444,C,885,Incorrect
2,relearn,1,117,D,34.75926149019662,28.597976930173562,1.7379630745098311,0.4492159711568183,A,621,Incorrect
2,relearn,1,118,A,40.904281208740954,60.39826011977367,2.0452140604370475,0.9487336514094316,A,727,Correct
2,relearn,1,119,D,59.288289243039884,27.363954328315273,2.9644144621519946,0.42983198945500944,A,734,Incorrect
2,relearn,1,120,A,38.62039729842057,37.4718832628251,1.9310198649210286,0.5886069658733283,A,788,Correct
2,relearn,1,121,C,69.2548045947738,40.574165614031514,3.4627402297386904,0.6373375030928851,C,845,Correct
2,relearn,1,122,B,59.837467098852755,82.50361552689242,2.991873354942638,1.29596376216941,C,1361,Incorrect
2,relearn,1,123,B,59.9024761478999,61.12397078498117,2.995123807394995,0.9601330878816698,A,1867,Incorrect
2,relearn,1,124,B,44.34181548021506,71.55065253783724,2.217090774010753,1.1239150218621268,A,685,Incorrect
2,relearn,1,125,C,69.08367467784072,28.987372906127014,3.4541837338920356,0.45533258884378225,C,1110,Correct
2,relearn,1,126,B,62.57661527098683,70.5268410521533,3.1288307635493413,1.1078330286516993,D,2732,Incorrect
2,relearn,1,127,D,53.844514289979735,11.36277079212296,2.6922257144989867,0.17848598622479084,C,768,Incorrect
2,relearn,1,128,D,35.33393135799949,4.415794117350725,1.7666965678999744,0.06936313179417031,A,478,Incorrect
2,relearn,1,129,A,21.576951828253748,54.82288023987554,1.0788475914126874,0.8611557890511301,A,636,Correct
2,relearn,1,130,C,85.51080215309518,61.291363247130505,4.275540107654759,0.9627624825284433,C,1080,Correct
2,relearn,1,131,C,58.367613520693354,45.60479460812136,2.9183806760346673,0.7163584385467274,B,1755,Incorrect
2,relearn,1,132,C,54.22867341415295,44.286383501784236,2.711433670707647,0.6956488853163278,B,1536,Incorrect
2,relearn,1,133,C,96.30281987262072,37.2976513647379,4.815140993631036,0.5858701376180695,C,1078,Correct
2,relearn,1,134,A,11.08348096601725,44.2068332958573,0.5541740483008625,0.6943993136036697,A,755,Correct
2,relearn,1,135,D,66.58345448821316,14.867214866126336,3.3291727244106584,0.23353366501381728,C,2272,Incorrect
2,relearn,1,136,A,30.711739425063946,50.05661444165314,1.5355869712531973,0.7862874609673712,A,572,Correct
2,relearn,1,137,D,61.50149342517055,42.02735633283389,3.0750746712585277,0.6601641695251571,B,704,Incorrect
2,relearn,1,138,B,42.721320718707304,65.31158129932044,2.1360660359353654,1.025911920021388,B,1908,Correct
2,relearn,1,139,D,31.78740205987135,12.453736682687715,1.5893701029935676,0.19562283836036723,A,767,Incorrect
2,relearn,1,140,A,32.58509261597894,25.485282406301046,1.6292546307989468,0.4003218799114829,A,867,Correct
2,relearn,1,141,B,63.61947435965962,78.6556192809895,3.1809737179829813,1.2355195784835613,C,1134,Incorrect
2,relearn,1,142,C,90.01847738559206,54.64527683719558,4.500923869279603,0.8583660013255708,D,2432,Incorrect
2,relearn,1,143,C,75.19584260145801,32.56550106196863,3.759792130072901,0.5115376944837563,C,771,Correct
2,relearn,1,144,C,53.45657272801458,58.511280740433016,2.672828636400729,0.9190930486313715,C,1424,Correct
2,relearn,1,145,A,21.712594550967957,73.90341367207316,1.085629727548398,1.1608721073369623,A,748,Correct
2,relearn,1,146,A,44.06653212895405,43.23978051200489,2.203326606447703,0.6792088839967483,B,772,Incorrect
2,relearn,1,147,A,7.232401315840242,52.91007936171672,0.3616200657920121,0.8311095831181108,A,655,Correct
2,relearn,1,148,B,33.773818269859966,91.60470621317569,1.6886909134929982,1.43892336036782,B,844,Correct
2,relearn,1,149,C,81.9425431849989,47.83593635844459,4.097127159249945,0.7514051312063921,C,822,Correct
2,relearn,1,150,C,85.0730408911648,42.24764801188978,4.2536520445582395,0.6636245031280018,C,1646,Correct
2,relearn,1,151,C,90.35482432333764,32.20527849162447,4.517741216166882,0.505879331580504,C,1062,Correct
2,relearn,1,152,A,20.980326406060026,51.48504194908414,1.0490163203030014,0.8087251477850252,A,908,Correct
2,relearn,1,153,B,61.273043386236786,54.1921131829877,3.063652169311839,0.8512477232909036,C,680,Incorrect
2,relearn,1,154,D,75.26029882071562,28.96841372739433,3.763014941035781,0.4550347787606588,C,3852,Incorrect
2,relearn,1,155,C,72.07227040028587,26.199060867532033,3.603613520014294,0.4115338857619524,D,893,Incorrect
2,relearn,1,156,D,61.289330280031365,18.667072591932612,3.0644665140015683,0.2932216905942144,C,702,Incorrect
2,relearn,1,157,D,45.053856835120776,46.561054859302544,2.252692841756039,0.731379339446881,A,6679,Incorrect
2,relearn,1,158,A,26.430490075886052,54.64700044987551,1.3215245037943026,0.8583930757702353,B,269,Incorrect
2,relearn,1,159,C,64.62134380194719,35.328082507425336,3.2310671900973595,0.5549322223537076,C,1271,Correct
2,relearn,1,160,C,92.45677299869949,41.33426776822894,4.622838649934974,0.6492771598109071,C,908,Correct
2,relearn,1,161,B,50.70003747870225,68.17040220299681,2.5350018739351126,1.0708181737659812,A,918,Incorrect
2,relearn,1,162,C,92.30742722373884,34.563608053148144,4.615371361186942,0.5429238857066361,C,743,Correct
2,relearn,1,163,C,84.34034291943925,25.82459308688058,4.217017145971963,0.4056517596184489,C,914,Correct
2,relearn,1,164,B,54.36292605297619,62.02409369362786,2.71814630264881,0.9742721854673315,B,1495,Correct
2,relearn,1,165,D,56.32451245802092,33.44361423584233,2.816225622901046,0.5253310639640665,B,811,Incorrect
2,relearn,1,166,B,41.70462352108933,87.87573102056665,2.0852311760544664,1.3803487550152242,A,775,Incorrect
2,relearn,1,167,D,38.562843166833446,5.936931451094875,1.9281421583416722,0.09325710115812925,D,1108,Correct
2,relearn,1,168,C,53.395913999676296,47.215356745890155,2.6697956999838146,0.7416570894475488,C,1191,Correct
2,relearn,1,169,D,52.472073055128696,40.69844950479342,2.623603652756435,0.6392897498837709,C,927,Incorrect
2,relearn,1,170,C,83.53973768174274,72.9397185576638,4.176986884087137,1.1457344198783181,C,1485,Correct
2,relearn,1,171,A,29.452742180130628,24.74479618256365,1.4726371090065313,0.38869034950859366,A,1911,Correct
2,relearn,1,172,B,58.28135448827824,100.12390378543179,2.9140677244139117,1.5727426029052187,D,1286,Incorrect
2,relearn,1,173,C,51.159170890601345,59.86766653087018,2.557958544530067,0.9403991068047265,C,813,Correct
2,relearn,1,174,A,24.099208955071525,26.397485718651893,1.2049604477535762,0.4146507360347913,A,725,Correct
2,relearn,1,175,C,67.17197158836852,68.34029078225237,3.3585985794184263,1.0734867773285717,C,1198,Correct
2,relearn,1,176,D,56.4236405975107,6.443519828480273,2.8211820298755352,0.10121457278206895,B,1109,Incorrect
2,relearn,1,177,D,60.55934354783902,45.75351261794107,3.027967177391951,0.718694495582258,C,886,Incorrect
2,relearn,1,178,D,48.567461641350825,27.72661442599158,2.4283730820675413,0.43552864094805965,C,580,Incorrect
2,relearn,1,179,A,21.68475573078252,39.936970627088286,1.084237786539126,0.6273284676434595,A,678,Correct
2,relearn,1,180,B,54.16934781679686,73.54018195591992,2.708467390839843,1.1551664768818735,C,1142,Incorrect
2,relearn,1,181,C,75.60950009487193,29.527381333697228,3.7804750047435967,0.463815021388438,C,717,Correct
2,relearn,1,182,B,54.588323811108495,65.08765293038277,2.7294161905554244,1.0223944614274634,B,1124,Correct
2,relearn,1,183,C,67.4887712079249,68.02569868678694,3.374438560396245,1.0685451762486133,C,676,Correct
2,relearn,1,184,D,53.29417776477364,19.08846491040096,2.6647088882386822,0.29984090565411103,B,1030,Incorrect
2,relearn,1,185,C,73.01641859824957,24.81320866222759,3.6508209299124785,0.3897649702262241,C,589,Correct
2,relearn,1,186,C,65.65186521575139,39.74143402911959,3.2825932607875696,0.6242569859450274,C,1319,Correct
2,relearn,1,187,B,33.80129376771027,57.26165165676656,1.6900646883855135,0.8994639208865782,B,1853,Correct
2,relearn,1,188,C,58.23574338275504,56.53973823059461,2.9117871691377517,0.8881241313056297,C,718,Correct
2,relearn,1,189,C,57.493956934951356,36.20619899345815,2.874697846747568,0.5687256438612914,C,678,Correct
2,relearn,1,190,D,58.064910909771186,41.665131367651,2.9032455454885593,0.6544743530773303,C,676,Incorrect
2,relearn,1,191,D,45.64707041728076,13.43750437586118,2.2823535208640378,0.2110758251489309,B,879,Incorrect
2,relearn,1,192,B,28.736488919567236,77.02544165121363,1.436824445978362,1.2099128081548098,C,1124,Incorrect
2,relearn,1,193,A,47.67042286979209,59.250610462055946,2.3835211434896046,0.9307064127415275,C,613,Incorrect
2,relearn,1,194,B,51.1923564667848,78.13295021239345,2.55961782333924,1.2273095119527617,C,414,Incorrect
2,relearn,1,195,B,75.00844604514498,79.55961379733385,3.750422302257249,1.249719491140726,C,435,Incorrect
2,relearn,1,196,C,75.0291329872309,59.22511321263311,3.751456649361545,0.9303059028841599,C,336,Correct
2,relearn,1,197,A,17.723568690831428,73.21162186269517,0.8861784345415714,1.150005467006185,A,751,Correct
2,relearn,1,198,B,53.08567139062651,71.60270856776133,2.6542835695313256,1.1247327160680496,B,739,Correct
2,relearn,1,199,D,30.95722225457203,28.831440029642778,1.5478611127286015,0.4528832009477021,A,728,Incorrect
2,relearn,1,200,D,57.44083550042026,48.59667857937919,2.872041775021013,0.7633548420692104,C,740,Incorrect
2,relearn,1,201,C,51.71993530299275,47.79044320195111,2.585996765149638,0.7506905263752495,C,823,Correct
2,relearn,1,202,C,78.83170953513554,27.667928935202273,3.941585476756777,0.43460681141437957,D,1598,Incorrect
2,relearn,1,203,A,26.26680950269591,49.611146193579046,1.3133404751347957,0.7792900620895857,A,1102,Correct
2,relearn,1,204,A,1.8931997230093423,63.5839904415978,0.09465998615046711,0.9987749862862365,A,813,Correct
2,relearn,1,205,C,66.0464614773289,67.79884147204714,3.302323073866445,1.0649817114524116,C,655,Correct
2,relearn,1,206,D,51.511077477012556,42.081983068274,2.5755538738506276,0.6610222442788983,C,644,Incorrect
2,relearn,1,207,B,61.888879045887876,63.66295054675812,3.0944439522943936,1.000015288717728,C,728,Incorrect
2,relearn,1,208,A,31.284892491133526,62.374506916131175,1.5642446245566761,0.9797764634950171,A,602,Correct
2,relearn,1,209,A,32.587785573012894,30.464344700759405,1.6293892786506448,0.47853280754166444,A,799,Correct
2,relearn,1,210,A,38.748775356994344,33.82609175702044,1.9374387678497171,0.5313390068175484,A,742,Correct
2,relearn,1,211,C,91.14579760487152,71.28205113999576,4.557289880243576,1.119695840971113,C,914,Correct
2,relearn,1,212,A,32.93233878646496,37.480799118259704,1.646616939323248,0.5887470158029975,B,1310,Incorrect
2,relearn,1,213,B,48.65311634886909,96.16146879573341,2.4326558174434547,1.5105008196354008,D,1100,Incorrect
2,relearn,1,214,C,72.78560491260265,57.359600811485116,3.6392802456301325,0.9010025026110239,C,552,Correct
2,relearn,1,215,A,31.213077157035183,47.983927348326766,1.5606538578517593,0.7537297682394487,A,820,Correct
2,relearn,1,216,A,42.82228401648983,69.9877094645127,2.1411142008244917,1.0993643694764497,C,748,Incorrect
2,relearn,1,217,C,52.188034746123314,51.12427959013211,2.6094017373061655,0.8030583059021482,C,478,Correct
2,relearn,1,218,C,99.03734870889035,52.20274205667693,4.951867435444518,0.819998754712496,C,676,Correct
2,relearn,1,219,D,48.935909499901285,7.9326275164013325,2.4467954749950644,0.12460542164595334,D,629,Correct
2,relearn,1,220,C,61.22645274375021,30.42016706316467,3.0613226371875104,0.47783886683306154,C,1174,Correct
2,relearn,1,221,C,96.24964621741913,49.09466570220523,4.812482310870957,0.7711772055024737,C,832,Correct
2,relearn,1,222,A,25.91232269210851,48.28476857070512,1.2956161346054256,0.7584553711100527,A,1340,Correct
2,relearn,1,223,A,13.246971234954048,34.925588814742994,0.6623485617477024,0.5486098662134722,A,768,Correct
2,relearn,1,224,D,40.692730636771486,8.39366560288363,2.0346365318385744,0.13184739097354276,B,1269,Incorrect
2,relearn,1,225,A,-0.3098875294543397,41.92436938763221,-0.015494376472716986,0.6585464543728509,A,780,Correct
2,relearn,1,226,D,48.85902589167092,7.265351466216504,2.442951294583546,0.11412387396006801,B,872,Incorrect
2,relearn,1,227,B,43.94279258229195,71.16866423719864,2.1971396291145977,1.1179147636669096,C,819,Incorrect
2,relearn,1,228,B,56.519927221576054,55.33620040427155,2.8259963610788024,0.8692190033381603,C,528,Incorrect
2,relearn,1,229,B,51.18795587529319,83.78185971759484,2.5593977937646595,1.316042374964433,B,1700,Correct
2,relearn,1,230,B,59.035412230555465,78.45203394811594,2.9517706115277735,1.2323216675528905,B,1063,Correct
2,relearn,1,231,B,49.61901209528469,78.09350032929174,2.4809506047642342,1.2266898346380752,B,1086,Correct
2,relearn,1,232,A,48.58693557789408,57.98107880735863,2.429346778894704,0.9107646561420435,B,1099,Incorrect
2,relearn,1,233,C,50.83779072066156,41.5086257335642,2.5418895360330778,0.6520159683258677,C,676,Correct
2,relearn,1,234,D,68.56206184881209,31.612859712180427,3.4281030924406046,0.49657363915375385,C,693,Incorrect
2,relearn,1,235,A,40.66915883126598,42.169366538340654,2.033457941563299,0.6623948606169312,B,741,Incorrect
2,relearn,1,236,C,85.57129551972571,32.47665264379167,4.278564775986285,0.5101420667946173,D,679,Incorrect
2,relearn,1,237,D,66.87924739639288,26.298905840282313,3.343962369819644,0.4131022469264032,C,630,Incorrect
2,relearn,1,238,D,67.3127442355679,25.059253451616314,3.3656372117783953,0.39362983274021235,C,565,Incorrect
2,relearn,1,239,C,72.56770658903632,72.05469552003416,3.6283853294518162,1.1318325105119433,B,620,Incorrect
2,relearn,1,240,C,63.448925345004525,53.8870612322728,3.1724462672502263,0.8464559784542577,A,414,Incorrect
2,relearn,1,241,C,91.05428764183542,42.2219251832118,4.552714382091771,0.6632204498799804,D,485,Incorrect
2,relearn,1,242,D,53.073951979531266,13.756971295828833,2.653697598976563,0.21609399979310762,C,603,Incorrect
2,relearn,1,243,A,37.20267341270142,47.77357688550294,1.860133670635071,0.7504255908960159,C,360,Incorrect
2,relearn,1,244,A,24.346976143022584,42.628259512027135,1.2173488071511291,0.6696031345915183,A,718,Correct
2,relearn,1,245,D,28.933663858257795,19.324559151331258,1.4466831929128898,0.3035494653184184,A,700,Incorrect
2,relearn,1,246,D,53.463768843989016,41.30173031709121,2.6731884421994505,0.6487660627236029,C,757,Incorrect
2,relearn,1,247,D,33.456952744600855,40.80560877764684,1.672847637230043,0.6409730038055724,B,1263,Incorrect
2,relearn,1,248,A,10.791187236470693,38.011598186022255,0.5395593618235346,0.5970847880620732,A,612,Correct
2,relearn,1,249,A,6.3502489488225216,39.08752895157754,0.31751244744112606,0.6139854690062717,A,533,Correct
2,relearn,1,250,C,61.223791926947754,67.49283545043389,3.0611895963473876,1.0601749801051392,C,766,Correct
2,relearn,1,251,C,68.61361040047126,54.46933606225974,3.430680520023563,0.8556023300955439,C,871,Correct
2,relearn,1,252,D,69.53274871843364,7.071812846957066,3.476637435921682,0.11108377643781117,D,988,Correct
2,relearn,1,253,B,60.97340522586528,90.87542596865019,3.048670261293264,1.4274678530747726,C,1479,Incorrect
2,relearn,1,254,D,49.21446962673328,41.93166106051541,2.460723481336664,0.658660991702662,C,654,Incorrect
2,relearn,1,255,B,37.12626983802928,97.75351340973863,1.856313491901464,1.535508597953131,D,1046,Incorrect
2,relearn,1,256,D,45.87493200173442,18.093240052714858,2.293746600086721,0.284207950146228,C,829,Incorrect
2,relearn,1,257,C,95.22832638006783,43.26509824100967,4.761416319003391,0.6796065739539833,C,1715,Correct
2,relearn,1,258,A,26.48227852510204,48.44374746212692,1.3241139262551018,0.7609526056968857,C,622,Incorrect
2,relearn,1,259,B,53.03909799647171,92.4970538616328,2.6519548998235853,1.4529403244520256,D,1173,Incorrect
2,relearn,1,260,D,42.17699146211715,12.560157341504295,2.1088495731058576,0.197294490160009,B,1518,Incorrect
2,relearn,1,261,B,36.8140462605231,94.63153637475938,1.840702313026155,1.486468697364297,A,508,Incorrect
2,relearn,1,262,D,28.47291052323031,37.128011689718726,1.4236455261615157,0.5832054438340816,A,871,Incorrect
2,relearn,1,263,D,61.30787263115563,24.440150851888063,3.065393631557782,0.3839049918445893,C,677,Incorrect
2,relearn,1,264,D,70.71329649676817,25.29473508077816,3.5356648248384084,0.3973287695213634,C,549,Incorrect
2,relearn,1,265,D,53.94595941771246,21.38429512016845,2.697297970885623,0.33590372225858633,C,734,Incorrect
2,relearn,1,266,D,61.580541192909564,28.42865157328569,3.079027059645478,0.4465562146704912,C,556,Incorrect
2,relearn,1,267,D,58.518728232158665,40.61726697439154,2.925936411607933,0.6380145376782189,B,839,Incorrect
2,relearn,1,268,D,49.544059954146284,19.745555709491732,2.4772029977073142,0.31016246378993606,A,1659,Incorrect
2,relearn,1,269,C,80.64318745530687,70.4106642210892,4.032159372765344,1.1060081272567577,C,705,Correct
2,relearn,1,270,D,55.277482087483975,43.69892348199589,2.7638741043741986,0.6864210849041039,B,884,Incorrect
2,relearn,1,271,C,90.81616039841401,28.582174291634377,4.540808019920701,0.4489677438911081,C,536,Correct
2,relearn,1,272,A,16.81775483883754,39.837242502448966,0.8408877419418771,0.6257619419248437,A,654,Correct
2,relearn,1,273,B,44.169870561692235,82.30069155407541,2.2084935280846114,1.2927762398582143,B,1414,Correct
2,relearn,1,274,C,65.5645279413911,35.34857644528094,3.2782263970695555,0.555254140376759,C,627,Correct
2,relearn,1,275,D,24.162163631616693,26.605360455298534,1.2081081815808346,0.4179160247623714,A,949,Incorrect
2,relearn,1,276,B,59.604410922156404,86.82297376774775,2.98022054610782,1.3638120827578781,C,1127,Incorrect
2,relearn,1,277,D,41.40336653317121,18.19890175549923,2.0701683266585604,0.28586768029239384,B,1539,Incorrect
2,relearn,1,278,B,25.97961665053672,75.02069644231152,1.298980832526836,1.178422344051779,A,743,Incorrect
2,relearn,1,279,D,31.037744139991393,22.262981229976468,1.5518872069995697,0.3497060913955076,A,676,Incorrect
2,relearn,1,280,D,33.30633535567007,25.88512917808109,1.6653167677835035,0.4066026583154117,A,558,Incorrect
2,relearn,1,281,D,41.858165333409595,13.132960627800804,2.09290826667048,0.20629206314091503,B,1070,Incorrect
2,relearn,1,282,C,64.71718181782849,41.69624023986717,3.235859090891424,0.654963010099409,C,782,Correct
2,relearn,1,283,B,54.87062827762794,51.33793821092789,2.743531413881397,0.8064144476694889,C,894,Incorrect
2,relearn,1,284,D,51.896883362471605,29.862197780440454,2.59484416812358,0.46907430583538573,B,549,Incorrect
2,relearn,1,285,B,46.8575267217651,52.27332733694824,2.342876336088255,0.8211075057022554,D,440,Incorrect
2,relearn,1,286,C,86.53633312978461,46.43498736687822,4.326816656489231,0.7293990759065974,C,653,Correct
2,relearn,1,287,A,14.901267153353924,46.149884542732444,0.7450633576676963,0.724920691217327,A,741,Correct
2,relearn,1,288,C,78.38082983758405,48.17098301198282,3.9190414918792023,0.7566680317332198,C,628,Correct
2,relearn,1,289,D,68.08428484281012,8.79248959989729,3.404214242140506,0.13811210366900994,B,1672,Incorrect
2,relearn,1,290,A,27.53817040872577,23.80938397328563,1.3769085204362883,0.3739969288848635,A,1510,Correct
2,relearn,1,291,B,61.0505397030696,73.48397697447493,3.05252698515348,1.1542836110978596,C,652,Incorrect
2,relearn,1,292,B,52.453825163481,57.8421861210734,2.62269125817405,0.9085829349276884,C,797,Incorrect
2,relearn,1,293,A,17.499230843398323,71.48413153119691,0.8749615421699162,1.1228701123332734,A,655,Correct
2,relearn,1,294,D,67.90419150043536,17.986929110843022,3.395209575021768,0.28253802177632414,C,652,Incorrect
2,relearn,1,295,A,7.636576667038884,51.045382583904534,0.3818288333519442,0.8018189946263743,A,1318,Correct
2,relearn,1,296,B,28.311655847988707,59.86331443655759,1.4155827923994355,0.9403307442671257,B,829,Correct
2,relearn,1,297,C,80.29946934318691,31.851720816258812,4.014973467159345,0.5003256606027588,C,885,Correct
2,relearn,1,298,D,41.639892402018766,49.916200469791,2.0819946201009385,0.784081843455054,B,2294,Incorrect
2,relearn,1,299,B,40.52405328987902,54.15301122226228,2.026202664493951,0.8506335111281239,A,974,Incorrect
2,relearn,1,300,A,29.193893064765675,58.97209348070006,1.459694653238284,0.9263314782288891,C,428,Incorrect
2,relearn,1,301,A,29.437576402693608,42.99580137769634,1.4718788201346802,0.6753764687168835,D,294,Correct
2,relearn,1,302,A,35.34461556954682,67.37808295932788,1.767230778477341,1.0583724521899407,C,1150,Incorrect
2,relearn,1,303,D,27.015835534907563,35.310709656930285,1.350791776745378,0.5546593302562717,D,277,Incorrect
2,relearn,1,304,B,48.37531328685009,59.38181028039254,2.418765664342504,0.9327672946687203,C,791,Correct
2,relearn,1,305,D,64.55988202489641,12.651261157903754,3.2279941012448203,0.19872554556158167,C,722,Correct
2,relearn,1,306,C,71.83063109728158,50.02317079726633,3.591531554864079,0.7857621294297967,C,534,Incorrect
2,relearn,1,307,B,43.02804458303257,88.75727914526979,2.1514022291516284,1.3941960805769906,D,1150,Incorrect
2,relearn,1,308,B,60.005198020674285,75.63599869775466,3.0002599010337145,1.1880874892789661,C,1131,Incorrect
2,relearn,1,309,B,43.26381761621451,85.5787660932818,2.1631908808107254,1.344268114309667,B,673,Correct
2,relearn,1,310,C,83.26727554613726,38.67393126987851,4.163363777306863,0.6074886918144345,C,644,Correct
2,relearn,1,311,C,59.85647888986442,55.61606421577085,2.992823944493221,0.8736150938092194,B,1023,Correct
2,relearn,1,312,C,72.90257364748793,73.00564932389477,3.6451286823743967,1.1467700579325022,C,950,Correct
2,relearn,1,313,C,53.32959124486197,47.59363860512528,2.6664795622430986,0.7475991269973457,B,798,Incorrect
2,relearn,1,314,D,25.09638299577841,28.308385223394847,1.2548191497889205,0.4446670752640356,A,670,Correct
2,relearn,1,315,B,30.22053300023886,58.11126014532565,1.511026650011943,0.912809539817002,B,1108,Correct
2,relearn,1,316,B,43.25629950497096,87.8639006894039,2.162814975248548,1.3801629246078724,C,918,Incorrect
2,relearn,1,317,B,45.722832925954286,91.83124974631966,2.286141646297714,1.442481897865037,B,748,Correct
2,relearn,1,318,B,49.87132863369358,71.12737458452095,2.4935664316846786,1.117266187319302,B,1188,Correct
2,relearn,1,319,A,1.3462478714002195,44.311457648224334,0.06731239357001098,0.6960427490875841,A,607,Correct
2,relearn,1,320,C,58.23662705805636,62.52489648767743,2.9118313529028175,0.9821387773607484,B,774,Incorrect
2,relearn,1,321,A,38.39881100992089,27.91746297035726,1.9199405504960447,0.4385264828726973,B,1124,Incorrect
2,relearn,1,322,A,39.24648662342246,34.37101083694402,1.9623243311711231,0.5398985757089926,A,741,Correct
2,relearn,1,323,B,50.970667140675204,72.51482421771088,2.5485333570337603,1.1390601951935786,A,614,Correct
2,relearn,1,324,B,53.17760854692181,75.07249650702805,2.6588804273460904,1.1792360175656236,A,620,Correct
2,relearn,1,325,D,69.73018020051889,36.28580153628547,3.4865090100259444,0.5699760376800583,C,729,Incorrect
2,relearn,1,326,A,4.130435759570698,45.606431365458775,0.2065217879785349,0.716384148670862,A,597,Correct
2,relearn,1,327,B,65.6851703186309,58.1610768640691,3.2842585159315445,0.9135920590051537,B,1276,Correct
2,relearn,1,328,A,38.9325411766547,63.690643128531754,1.946627058832735,1.000450282775023,A,982,Correct
2,relearn,1,329,C,83.89128629182422,49.143364344337115,4.194564314591211,0.7719421619842803,B,955,Incorrect
2,relearn,1,330,B,35.5591234209645,52.74476918670453,1.777956171048225,0.8285128969612013,A,2062,Correct
2,relearn,1,331,A,30.45655739593574,38.74842809498285,1.522827869796787,0.6086588852067524,A,1327,Incorrect
2,relearn,1,332,C,63.668606219977534,33.53516756768181,3.1834303109988764,0.5267691803376594,B,1508,Incorrect
2,relearn,1,333,B,71.56233838288101,81.83438507210282,3.5781169191440507,1.2854515147677823,C,862,Incorrect
2,relearn,1,334,A,29.362568916637496,56.94700172266244,1.4681284458318749,0.8945214112794081,A,1315,Incorrect
2,relearn,1,335,A,33.01804140549669,28.569879033384385,1.6509020702748345,0.44877461042614725,A,535,Correct
2,relearn,1,336,D,30.827297258113095,43.377536842546135,1.5413648629056547,0.6813727553768176,A,749,Incorrect
2,relearn,1,337,C,64.85060164967457,69.59780555269839,3.2425300824837286,1.0932397731516408,B,1271,Correct
2,relearn,1,338,A,20.765017665912193,52.49182110362871,1.0382508832956097,0.824539597763548,A,543,Correct
2,relearn,1,339,C,88.16958555912655,54.71744663775229,4.408479277956327,0.8594996419017705,C,1213,Correct
2,relearn,1,340,C,67.19783483772434,73.81707093889877,3.3598917418862175,1.159515838855805,C,1127,Incorrect
2,relearn,1,341,B,45.346138334776875,49.52653509918733,2.2673069167388435,0.7779609941268197,A,774,Correct
2,relearn,1,342,B,47.90485448881376,55.24766286449939,2.395242724440688,0.8678282589155845,A,1397,Correct
2,relearn,1,343,D,50.47581804627295,9.245007942197738,2.5237909023136473,0.14522024516793855,C,1229,Correct
2,relearn,1,344,B,62.936968541406635,66.50714804749222,3.146848427070332,1.0446918385860515,A,1175,Correct
2,relearn,1,345,A,24.384306223785778,30.045763537946637,1.219215311189289,0.47195775001154616,A,1231,Incorrect
2,relearn,1,346,D,26.217557069601682,33.612038023321176,1.3108778534800842,0.527976658631233,B,850,Correct
2,relearn,1,347,B,67.57560176182632,56.63821716922126,3.378780088091316,0.889671034856244,C,1233,Incorrect
2,relearn,1,348,C,70.3741352333939,45.01533511837397,3.5187067616696948,0.7070992305338314,A,699,Incorrect
2,relearn,1,349,D,25.865898004290536,35.1348469096955,1.2932949002145266,0.5518968846825071,A,679,Correct
2,relearn,1,350,B,52.73245900563035,56.42201226985281,2.636622950281518,0.8862748962386137,A,927,Incorrect
2,relearn,1,351,B,53.52761460830634,58.536197455700105,2.676380730415317,0.9194844394795448,C,629,Incorrect
2,relearn,1,352,A,9.45178446943509,35.817244538612066,0.47258922347175447,0.562615961571664,A,1853,Incorrect
2,relearn,1,353,D,36.696644973254834,18.671894089133456,1.8348322486627415,0.29329742649514173,A,1526,Incorrect
2,relearn,1,354,D,41.87616905227574,49.34033940476242,2.093808452613787,0.775036238998143,C,2165,Correct
2,relearn,1,355,D,38.866175836394035,37.71320764647416,1.9433087918197018,0.5923976804273482,C,888,Incorrect
2,relearn,1,356,A,20.076242416719637,69.42042095848518,1.0038121208359818,1.0904534224614397,A,516,Correct
2,relearn,1,357,C,52.148535419179424,48.5998445406418,2.6074267709589716,0.7634045728724316,C,744,Incorrect
2,relearn,1,358,A,31.512184673198647,56.16424170204181,1.5756092336599323,0.8822258456278803,B,1098,Incorrect
2,relearn,1,359,C,48.56419066013142,46.90249426210312,2.428209533006571,0.7367426570443029,C,831,Correct
2,relearn,1,360,D,44.32123073965732,33.45319005249837,2.216061536982866,0.5254814805403601,A,675,Correct
2,relearn,1,361,B,58.53665026448036,75.74606622004605,2.926832513224018,1.1898164258761132,C,765,Correct
2,relearn,1,362,A,24.578823546440272,59.42574299779896,1.2289411773220136,0.9334573881800015,A,534,Correct
2,relearn,1,363,D,31.20102165874863,18.773082600966685,1.5600510829374314,0.2948868919221565,B,800,Correct
2,relearn,1,364,C,82.58941672998515,45.367830468095754,4.129470836499257,0.712636214539384,C,717,Incorrect
2,relearn,1,365,C,64.59982965647863,31.287761836962552,3.2299914828239316,0.4914670136713432,A,1422,Incorrect
2,relearn,1,366,C,82.35240406610089,73.42742538238741,4.117620203305044,1.1533953007666051,C,716,Correct
2,relearn,1,367,A,31.184259577398198,34.885121423744685,1.55921297886991,0.547974205922121,A,664,Incorrect
2,relearn,1,368,A,24.633367798048077,43.259079293571574,1.231668389902404,0.679512028548714,B,883,Correct
2,relearn,1,369,C,79.316132462454,32.8461993165902,3.9658066231227,0.5159468923567293,C,743,Correct
2,relearn,1,370,A,42.198806566083036,49.64878921553269,2.109940328304152,0.7798813572957282,B,924,Incorrect
2,relearn,1,371,B,74.55482132423361,78.50027150824646,3.7277410662116806,1.233079381375556,C,2414,Incorrect
2,relearn,1,372,D,40.01951868018167,24.444977393519,2.0009759340090834,0.3839808069832393,C,759,Incorrect
2,relearn,1,373,D,31.847413782482676,19.333556990742935,1.5923706891241338,0.30369080304938795,A,446,Incorrect
2,relearn,1,374,B,35.31889146352201,91.05810600195238,1.7659445731761003,1.4303373843276714,B,484,Correct
2,relearn,1,375,D,65.25537033886931,8.325210320516366,3.2627685169434653,0.1307720979126207,C,735,Incorrect
2,relearn,1,376,B,67.62918514330268,65.15629284295409,3.3814592571651336,1.023472654652849,C,810,Incorrect
2,relearn,1,377,A,18.751916973888072,69.16826827298509,0.9375958486944036,1.0864926173396896,A,791,Incorrect
2,relearn,1,378,A,19.143565899969282,45.11018115026168,0.9571782949984641,0.7085890685188343,A,655,Correct
2,relearn,1,379,D,59.76282633490716,28.755199333796135,2.988141316745358,0.4516856148978202,C,2836,Correct
2,relearn,1,380,A,21.12506092049363,60.86049593320456,1.0562530460246817,0.9559944345879348,A,893,Correct
2,relearn,1,381,A,11.449872237377999,52.874826023112796,0.5724936118689,0.8305558249702479,100,937,Correct
2,relearn,1,382,D,37.9021960997155,11.114667724051051,1.895109804985775,0.17458879234485183,C,715,Incorrect
2,relearn,1,383,B,42.51702253328854,55.92874733637869,2.125851126664427,0.8785267087822349,A,2276,Correct
2,relearn,1,384,C,79.47409171830077,37.370110866959244,3.9737045859150384,0.5870083288173763,C,881,Incorrect
2,relearn,1,385,C,80.92074336218113,36.56562804217881,4.046037168109057,0.5743715421560293,A,771,Incorrect
2,relearn,1,386,C,92.55205524810606,52.9718749607829,4.627602762405303,0.8320802661183633,C,879,Correct
2,relearn,1,387,D,46.11803182053329,2.2055678853143874,2.3059015910266645,0.034644979327486274,D,1660,Incorrect
2,relearn,1,388,D,68.47238262195161,17.983062554533195,3.4236191310975808,0.2824772860518359,C,704,Incorrect
2,relearn,1,389,D,63.278263937780835,46.21210630134628,3.1639131968890415,0.7258980683161004,B,507,Incorrect
2,relearn,1,390,A,11.427491912948529,60.629950775925124,0.5713745956474264,0.9523730397257858,A,841,Correct
2,relearn,1,391,B,34.984330261310795,64.25021533902103,1.7492165130655397,1.0092400225031535,C,818,Correct
2,relearn,1,392,A,16.59671523216501,59.86401852014133,0.8298357616082506,0.9403418039861966,A,822,Correct
2,relearn,1,393,B,40.943859143836235,87.30428244124838,2.0471929571918115,1.3713724617217713,C,502,Incorrect
2,relearn,1,394,A,4.492512639668931,51.39586399199868,0.22462563198344654,0.8073243437108163,A,627,Correct
2,relearn,1,395,D,47.822869023604056,0.19597901318861233,2.391143451180203,0.003078431140455608,D,1351,Correct
2,relearn,1,396,C,56.437421763277996,39.14481740945192,2.8218710881639,0.6148853539982398,C,1510,Correct
2,relearn,1,397,D,38.15874532114873,15.860956554660362,1.9079372660574365,0.24914332295513933,B,1565,Incorrect
2,relearn,1,398,A,44.86280062585234,33.39998265097793,2.243140031292617,0.524645700631694,A,966,Incorrect
2,relearn,1,399,A,38.89582629891396,60.20900999864711,1.944791314945698,0.9457609174583208,C,628,Correct
2,relearn,1,400,A,26.929981932529586,26.32048583953279,1.3464990966264794,0.413441224761952,A,694,Correct
2,relearn,1,401,C,84.5712160766675,49.34766970067033,4.228560803833375,0.7751513830170077,C,1584,Correct
2,relearn,1,402,C,76.48083379881425,48.336745648485554,3.8240416899407124,0.759271825138603,C,2235,Correct
2,relearn,1,403,B,69.34912070094158,73.21493652719863,3.467456035047079,1.1500575336344512,C,1376,Incorrect
2,relearn,1,404,B,61.40597265428513,94.93193465159781,3.0702986327142567,1.4911873424626303,D,796,Incorrect
2,relearn,1,405,D,70.16115966687582,29.344873741864916,3.5080579833437913,0.4609481988398142,C,856,Incorrect
2,relearn,1,406,D,44.115986627390214,3.394654706665577,2.205799331369511,0.05332311143967295,D,1082,Incorrect
2,relearn,1,407,D,48.807597253506216,51.33120224630254,2.440379862675311,0.8063086393845795,B,1050,Incorrect
2,relearn,1,408,B,57.52481895571629,66.8845410093068,2.876240947785815,1.0506199133678173,C,644,Correct
2,relearn,1,409,A,45.62735470641215,59.95311747176167,2.2813677353206074,0.9417413670454616,C,652,Incorrect
2,relearn,1,410,D,50.93188514478236,45.59362913319999,2.5465942572391183,0.7161830516767932,A,573,Correct
2,relearn,1,411,A,20.422034699029428,38.56311780935939,1.0211017349514713,0.6057480380470058,A,702,Incorrect
2,relearn,1,412,B,75.10011136716315,68.11971121322598,3.7550055683581576,1.070021921560645,C,1390,Incorrect
2,relearn,1,413,A,35.973866912315714,27.602341621463378,1.7986933456157856,0.4335765682993256,A,1183,Correct
2,relearn,1,414,B,55.44719722036594,98.80770905519802,2.7723598610182973,1.552067864429239,D,948,Correct
2,relearn,1,415,A,18.79024700415945,26.170017442202067,0.9395123502079725,0.41107767270369383,A,693,Incorrect
2,relearn,1,416,C,71.37806994949835,32.3616274960109,3.568903497474918,0.5083352559983865,C,980,Correct
2,relearn,1,417,B,32.75078495385977,84.06606471510334,1.6375392476929886,1.3205066566258639,B,1427,Correct
2,relearn,1,418,C,67.33487697132577,66.93719485227862,3.366743848566289,1.0514469979991352,C,945,Correct
2,relearn,1,419,C,67.67433814884365,73.01867038238986,3.383716907442182,1.1469745922410528,C,932,Correct
2,relearn,1,420,D,71.71003865446862,18.523886722935845,3.585501932723431,0.29097253222352376,D,1206,Incorrect
2,relearn,1,421,B,44.16789777819515,51.82128812478317,2.208394888909757,0.8140068903618941,B,815,Correct
2,relearn,1,422,C,68.70836972612439,48.03146990636816,3.435418486306219,0.7544765649948272,C,742,Correct
2,relearn,1,423,B,32.85242916180532,69.79270437310075,1.642621458090266,1.0963012366634877,B,772,Correct
2,relearn,1,424,A,40.26244662339145,38.842939797948524,2.0131223311695723,0.6101434715653284,C,1519,Incorrect
2,relearn,1,425,D,75.10575997496404,28.185800814981036,3.755287998748202,0.4427415238794481,C,533,Correct
2,relearn,1,426,A,39.92050216910043,51.49385534505726,1.9960251084550213,0.808863588285237,B,541,Correct
2,relearn,1,427,A,32.40038375537992,26.07800991217869,1.620019187768996,0.4096324218017119,A,646,Incorrect
2,relearn,1,428,B,63.44317814557447,71.31569443376154,3.1721589072787237,1.1202243085937988,C,551,Incorrect
2,relearn,1,429,B,41.924162135629295,61.11109180197994,2.096208106781465,0.959930785289758,B,1021,Incorrect
2,relearn,1,430,B,49.4326364145403,70.99552382936743,2.4716318207270147,1.115195080500499,C,599,Incorrect
2,relearn,1,431,D,58.39721941770377,15.240572373097388,2.919860970885188,0.23939835101913157,C,1156,Correct
2,relearn,1,432,D,43.628591304321496,2.055861412997679,2.181429565216075,0.0322933955593612,D,884,Correct
2,relearn,1,433,A,25.575244368115463,56.61857231195777,1.2787622184057732,0.8893624541599451,B,965,Incorrect
2,relearn,1,434,B,71.16162677028352,82.81075812980282,3.5580813385141763,1.3007883468939487,C,911,Correct
2,relearn,1,435,B,38.89008271493502,94.08907079986479,1.9445041357467512,1.4779476680397257,D,819,Correct
2,relearn,1,436,B,65.7444495117222,73.11513885902097,3.28722247558611,1.1484899155284896,C,847,Correct
2,relearn,1,437,B,57.05025032540915,95.3882278760533,2.8525125162704574,1.498354779671791,D,760,Incorrect
2,relearn,1,438,A,18.98525692666836,54.60691527381188,0.949262846333418,0.8577634192970383,A,860,Correct
2,relearn,1,439,B,33.463719742916055,83.24749447587845,1.6731859871458028,1.3076485853758832,B,1029,Correct
2,relearn,1,440,D,62.428563593307594,9.689536996673239,3.1214281796653798,0.15220289122717576,D,894,Correct
2,relearn,1,441,A,49.89565556341147,44.76805496681008,2.4947827781705736,0.7032149629961728,C,653,Incorrect
2,relearn,1,442,C,65.18501276492432,72.03134324774705,3.259250638246216,1.1314656938766345,C,772,Incorrect
2,relearn,1,443,B,69.083748932388,67.53712489310549,3.4541874466194002,1.0608706770437826,C,669,Incorrect
2,relearn,1,444,D,28.078658278972377,29.25759119165556,1.4039329139486187,0.45957716774719276,A,726,Incorrect
2,relearn,1,445,C,66.82531977128899,32.49981340565933,3.34126598856445,0.5105058751912921,C,693,Incorrect
2,relearn,1,446,D,60.69151722747427,40.93118505820095,3.034575861373714,0.6429455514078422,B,845,Correct
2,relearn,1,447,D,37.58954747693106,23.07966043366026,1.879477373846553,0.36253445832867043,A,726,Incorrect
2,relearn,1,448,B,41.99557852706805,94.24036197876316,2.0997789263534026,1.4803241443206259,D,847,Incorrect
2,relearn,1,449,C,53.62082392073951,36.58689908860887,2.6810411960369755,0.5747056669720235,C,909,Incorrect
2,relearn,1,450,B,53.86132403956661,66.10247188887685,2.693066201978331,1.0383352003511066,B,1510,Correct
2,relearn,1,451,A,31.94449627169976,43.01067808309083,1.5972248135849878,0.6756101514587683,A,987,Incorrect
2,relearn,1,452,D,51.391148358143376,21.832019255282034,2.569557417907169,0.34293655652712474,B,873,Incorrect
2,relearn,1,453,C,91.69234366362832,45.23265973708213,4.584617183181416,0.7105129576617203,D,1204,Correct
2,relearn,1,454,A,39.15340572716218,46.46603595865033,1.957670286358109,0.7298867860456753,D,1678,Correct
2,relearn,1,455,C,75.98339462446918,54.0189871920321,3.799169731223459,0.8485282665842458,D,1013,Correct
2,relearn,1,456,B,31.704407164551483,56.13814781834321,1.5852203582275741,0.8818159638612244,C,912,Correct
2,relearn,1,457,B,56.78318929093763,86.0812151350234,2.8391594645468814,1.3521605654013602,D,1259,Incorrect
2,relearn,1,458,A,1.8680032672681328,50.470858042531546,0.09340016336340665,0.7927943842339521,A,719,Correct
2,relearn,1,459,B,35.39562805503293,80.67569306521725,1.7697814027516465,1.2672508232847575,D,837,Incorrect
2,relearn,1,460,D,46.39457333873958,4.1049897282802625,2.319728666936979,0.06448102786713417,C,1386,Incorrect
2,relearn,1,461,C,73.22491459849915,47.08437357445104,3.6612457299249574,0.7395996106018639,B,680,Correct
2,relearn,1,462,D,48.9840567953403,45.67195516114227,2.449202839767015,0.7174133940466351,B,899,Correct
2,relearn,1,463,D,70.98888391694746,41.02402207483868,3.549444195847373,0.6444038318550935,B,646,Correct
2,relearn,1,464,D,49.71621331327311,17.466350842847234,2.485810665663655,0.2743607974645538,B,551,Incorrect
2,relearn,1,465,D,72.0386794133127,26.884711170365527,3.6019339706656353,0.42230405553351896,B,1011,Correct
2,relearn,1,466,C,82.21804494666489,66.33730581407006,4.110902247333245,1.04202396302211,B,905,Incorrect
2,relearn,1,467,D,70.90162167333415,18.22629387581641,3.5450810836667075,0.2862979547121674,A,644,Incorrect
2,relearn,1,468,A,8.200073599752535,67.61224291406575,0.41000367998762677,1.0620506281577877,A,662,Correct
2,relearn,1,469,C,99.00519023776317,60.469171819878376,4.9502595118881585,0.9498475297899441,C,547,Correct
2,relearn,1,470,D,46.3785304552618,10.045170695071814,2.31892652276309,0.15778917229846542,C,604,Incorrect
2,relearn,1,471,B,42.08142584372647,51.47063976455028,2.1040712921863234,0.8084989187993892,C,1013,Incorrect
2,relearn,1,472,C,93.27854335142439,45.55975701850714,4.663927167571219,0.7156509897433904,B,494,Incorrect
2,relearn,1,473,D,64.872070947362,16.892570049344663,3.2436035473681,0.26534786983636083,D,336,Incorrect
2,relearn,1,474,C,82.87072731493724,37.66124218205411,4.143536365746862,0.591581408821036,A,372,Correct
2,relearn,1,475,C,78.58993669752358,31.78100293603062,3.929496834876179,0.49921482673774725,A,485,Incorrect
2,relearn,1,476,A,38.73659481080141,61.586123156016924,1.9368297405400705,0.9673925603500952,C,316,Correct
2,relearn,1,477,B,42.40715780409647,87.20685381494376,2.1203578902048235,1.3698420564385316,D,838,Incorrect
2,relearn,1,478,C,56.773451972930275,30.864673707402847,2.8386725986465136,0.4848211608731141,C,423,Incorrect
2,relearn,1,479,A,11.824629805146465,72.9694650002871,0.5912314902573232,1.1462016759063973,A,524,Correct
2,relearn,1,480,C,86.34688254486173,29.811810144441953,4.317344127243087,0.46828281869996247,A,992,Incorrect
2,relearn,1,481,B,65.89259645928188,93.70990083399084,3.294629822964094,1.4719916801434683,D,845,Incorrect
2,relearn,1,482,D,49.997101434442584,22.800671998041803,2.4998550717221293,0.3581521182297932,C,629,Correct
2,relearn,1,483,A,-0.9450941553740222,53.19628178362861,-0.04725470776870111,0.8356052402487011,A,742,Incorrect
2,relearn,1,484,C,71.60675929641404,58.082713670949,3.580337964820702,0.912361132846064,C,747,Incorrect
2,relearn,1,485,C,62.730590456671266,43.862635689228235,3.1365295228335635,0.6889926702418243,D,686,Correct
2,relearn,1,486,D,58.36212111436045,3.5846655119702966,2.918106055718022,0.05630779418991289,C,1334,Correct
2,relearn,1,487,B,71.65670960046572,81.70409519653974,3.582835480023286,1.2834049261882516,D,964,Correct
2,relearn,1,488,B,34.34464117849831,86.22538052911666,1.7172320589249153,1.3544251101162865,C,832,Correct
2,relearn,1,489,C,65.5174314016936,51.66210004939458,3.2758715700846803,0.8115063699209947,D,579,Incorrect
2,relearn,1,490,C,68.06695561479462,71.63617107485717,3.4033477807397308,1.1252583439003647,C,1551,Incorrect
2,relearn,1,491,D,29.923144232834595,37.247062028155156,1.4961572116417299,0.585075482177278,B,469,Correct
2,relearn,1,492,D,66.70352459138235,4.057046376104804,3.335176229569117,0.06372793545221972,A,383,Incorrect
2,relearn,1,493,B,68.94739538231275,78.17183969462997,3.447369769115637,1.2279203865112422,B,686,Incorrect
2,relearn,1,494,D,68.96412850803978,16.872847219009888,3.448206425401989,0.2650380643419222,C,778,Incorrect
2,relearn,1,495,C,96.62748414208349,64.5979317849719,4.831374207104175,1.0147019396638117,D,424,Correct
2,relearn,1,496,B,54.70079328766073,61.193578864288284,2.7350396643830366,0.9612264890345786,C,533,Incorrect
2,relearn,1,497,C,88.23913947857022,34.885276898653906,4.411956973928511,0.5479766481162842,D,767,Incorrect
2,relearn,1,498,D,54.43713759261863,43.37830805844227,2.721856879630932,0.6813848696077858,C,582,Incorrect
2,relearn,1,499,D,65.4940621436332,44.329791675692746,3.2747031071816597,0.6963307393176115,B,317,Incorrect
2,relearn,1,500,A,12.206496042319209,46.50462019448334,0.6103248021159604,0.7304928658048617,A,244,Correct
2,relearn,1,501,D,40.09935578030438,22.32749780598433,2.004967789015219,0.35071951540161295,102,548,Incorrect
2,relearn,1,502,B,40.03675793668569,83.34279403072445,2.0018378968342843,1.309145547282856,B,440,Correct
2,relearn,1,503,B,53.77812674491768,61.280671627358274,2.688906337245884,0.962594538957786,D,1287,Incorrect
2,relearn,1,504,C,72.60947461201228,53.48143905456937,3.6304737306006136,0.840084480186227,C,413,Correct
2,relearn,1,505,D,43.34345186075404,37.44420274760918,2.167172593037702,0.5881721613570787,A,718,Correct
2,relearn,1,506,C,83.05191287193591,32.77538229949688,4.152595643596795,0.5148345012534817,C,578,Correct
2,relearn,1,507,D,46.83483000484959,3.891635216799166,2.3417415002424797,0.061129663037737904,D,1040,Incorrect
2,relearn,1,508,D,47.435748615058394,51.660689302735406,2.37178743075292,0.8114842099642918,A,725,Incorrect
2,relearn,1,509,D,58.83974380037882,38.51359823588463,2.941987190018941,0.6049701864058198,B,693,Correct
2,relearn,1,510,A,12.763928786850592,34.10999246226925,0.6381964393425296,0.5357985086673414,A,628,Correct
2,relearn,1,511,C,65.056204040776,29.15745232079562,3.2528102020387997,0.4580041900420309,C,859,Incorrect
2,relearn,1,512,C,56.135363414005525,61.22755848157869,2.806768170700276,0.9617602396148354,D,662,Incorrect
2,relearn,1,513,D,25.312082287970025,33.7456785927903,1.2656041143985013,0.5300758797875618,A,1646,Incorrect
2,relearn,1,514,D,26.935113558164474,27.69315280948633,1.3467556779082235,0.43500302710510896,B,295,Correct
2,relearn,1,515,A,29.586572099279515,46.398080233011434,1.4793286049639758,0.7288193400034926,A,1396,Incorrect
2,relearn,1,516,A,33.575713076613795,48.8604398914544,1.6787856538306898,0.7674979950707941,B,609,Incorrect
2,relearn,1,517,D,45.48173873875954,34.80308202363666,2.274086936937977,0.5466855340386996,C,573,Incorrect
2,relearn,1,518,A,43.30383985282462,42.62686590607641,2.1651919926412315,0.6695812438804344,D,339,Correct
2,relearn,1,519,A,26.022041148425938,70.06598087759255,1.301102057421297,1.1005938539580384,106,854,Incorrect
2,relearn,1,520,D,51.51109086183648,18.895864719088138,2.575554543091824,0.29681554892356926,C,773,Correct
2,relearn,1,521,B,33.78268072104525,67.05630897053992,1.6891340360522629,1.0533180381934777,D,885,Incorrect
2,relearn,1,522,D,43.80704876841495,32.26662639089869,2.1903524384207476,0.5068429821288694,B,647,Incorrect
2,relearn,1,523,B,40.27504768335973,63.736238177634554,2.0137523841679865,1.00116648813153,A,564,Incorrect
2,relearn,1,524,D,41.274149433884745,42.70833176311713,2.0637074716942374,0.670860906570422,C,271,Incorrect
2,relearn,1,525,A,35.251602678003465,59.43464089443995,1.7625801339001732,0.9335971560136003,D,379,Incorrect
2,relearn,1,526,B,51.10353164034885,98.44988306868638,2.5551765820174426,1.5464471469767966,B,613,Incorrect
2,relearn,1,527,A,37.456719389499064,65.6997187845636,1.872835969474953,1.0320087693825015,A,294,Correct
2,relearn,1,528,C,80.69316482902533,60.217509184033304,4.034658241451267,0.9458944223501747,C,1244,Incorrect
2,relearn,1,529,C,70.84879608431221,70.31626709917164,3.5424398042156104,1.1045253407330764,D,1581,Incorrect
2,relearn,1,530,A,43.9741300401389,55.77300694143798,2.198706502006945,0.8760803443791705,B,325,Incorrect
2,relearn,1,531,C,87.98338565341302,43.66745440062962,4.399169282670652,0.6859267697299265,C,1175,Correct
2,relearn,1,532,B,40.14461990565711,91.52362851945284,2.0072309952828555,1.4376497949329718,B,1206,Incorrect
2,relearn,1,533,C,79.55368634996371,49.015344884025424,3.9776843174981855,0.7699312370041216,C,556,Incorrect
2,relearn,1,534,A,20.91055760414087,52.82302209738844,1.0455278802070436,0.8297420908078341,A,1542,Correct
2,relearn,1,535,B,60.32830945278274,99.0594098687204,3.016415472639137,1.5560215715625612,D,1102,Incorrect
2,relearn,1,536,A,40.368746382531285,53.43400674125135,2.0184373191265643,0.8393394151509137,A,566,Correct
2,relearn,1,537,C,78.28442610221427,70.60295651001653,3.9142213051107135,1.109028647467938,C,485,Correct
2,relearn,1,538,A,27.249496647605262,43.84917981126036,1.3624748323802631,0.6887813058049671,A,548,Correct
2,relearn,1,539,B,62.295600876095975,97.6894217039517,3.114780043804799,1.5345018477928496,B,1351,Incorrect
2,relearn,1,540,A,36.369050916593764,35.412967835155825,1.8184525458296883,0.5562655979636859,A,534,Incorrect
2,relearn,1,541,A,26.847713949198077,30.081043642058336,1.342385697459904,0.4725119285910221,C,915,Incorrect
2,relearn,1,542,B,31.51918864680834,82.52871952099358,1.575959432340417,1.2963580947866298,D,519,Incorrect
2,relearn,1,543,A,46.159471639247016,61.31491971675561,2.307973581962351,0.963132506688037,B,484,Incorrect
2,relearn,1,544,A,16.0481484256602,45.87483884476366,0.8024074212830101,0.7206002834966259,B,744,Correct
2,relearn,1,545,C,76.23723001761742,25.93489675808962,3.8118615008808714,0.40738440563412043,C,467,Correct
2,relearn,1,546,D,30.970935535029135,17.705850874425924,1.5485467767514567,0.27812285516326446,B,1584,Incorrect
2,relearn,1,547,B,62.7141490713472,84.64591003002462,3.1357074535673597,1.32961484553374,C,844,Incorrect
2,relearn,1,548,A,26.362845316458024,56.365664360872444,1.3181422658229014,0.8853897853541244,A,918,Correct
2,relearn,1,549,B,49.92740326766456,81.97971824207121,2.4963701633832276,1.2877344028632605,C,1957,Incorrect
2,relearn,1,550,A,16.943390940643724,64.12717295503874,0.8471695470321862,1.007307277255159,A,630,Correct
2,relearn,1,551,D,61.69788958532855,40.38973020299803,3.0848944792664277,0.6344403984310619,C,797,Correct
2,relearn,1,552,A,46.40157699558772,61.89739836390314,2.320078849779386,0.972282059881795,C,1087,Incorrect
2,relearn,1,553,B,57.75634453552562,72.12586529465581,2.8878172267762814,1.1329504427174886,C,792,Incorrect
2,relearn,1,554,A,16.65859570483645,36.08428828902337,0.8329297852418225,0.5668106749940601,A,724,Correct
2,relearn,1,555,B,44.5499129021251,55.64213114284881,2.227495645106255,0.8740245521422683,B,823,Incorrect
2,relearn,1,556,D,44.8621004358786,10.235153232509239,2.24310502179393,0.16077341101808423,D,941,Correct
2,relearn,1,557,C,89.96967679238743,53.105165888792875,4.498483839619372,0.8341739951194947,C,1189,Correct
2,relearn,1,558,B,37.38229325148632,54.22082939096181,1.8691146625743158,0.8516987964309558,B,959,Incorrect
2,relearn,1,559,A,0.8177733973146388,60.849980998587796,0.04088866986573194,0.9558292663812097,A,749,Correct
2,relearn,1,560,A,20.343106996386183,34.06577632774704,1.017155349819309,0.5351039632504158,A,1439,Correct
2,relearn,1,561,D,31.979733238181534,32.28858108630476,1.5989866619090767,0.5071878456778669,A,1110,Correct
2,relearn,1,562,A,29.457964236327758,49.709946115294464,1.4728982118163878,0.7808420076307679,B,1110,Correct
2,relearn,1,563,B,47.2869970150994,91.60523837344417,2.3643498507549703,1.43893171952177,B,2423,Correct
2,relearn,1,564,D,70.91936172276878,31.57445976436083,3.545968086138439,0.4959704541839125,C,762,Incorrect
2,relearn,1,565,D,38.604097598873906,33.02514233300601,1.9302048799436955,0.5187577226856448,B,1494,Incorrect
2,relearn,1,566,A,8.669180875009083,48.050535846864925,0.43345904375045413,0.7547760520878192,A,568,Incorrect
2,relearn,1,567,B,30.459944562742056,87.0121322342423,1.5229972281371027,1.3667833770013962,D,651,Incorrect
2,relearn,1,568,C,76.5857805577734,62.15680850607913,3.8292890278886706,0.9763568648664288,C,160,Incorrect
2,relearn,1,569,A,19.68809149215171,55.20741736355321,0.9844045746075856,0.8671960840650218,A,508,Correct
2,relearn,1,570,D,26.98844591690564,27.642523847381156,1.3494222958452822,0.4342077492280666,A,1179,Incorrect
2,relearn,1,571,B,33.93118867551152,86.4986866912107,1.696559433775576,1.3587181932713637,C,814,Incorrect
2,relearn,1,572,B,49.70946497024897,78.6651423934079,2.4854732485124487,1.2356691671836264,C,936,Incorrect
2,relearn,1,573,C,56.72760742722238,68.07160981010752,2.836380371361119,1.0692663464873233,D,972,Incorrect
2,relearn,1,574,D,68.16562746270044,17.270469380671727,3.408281373135022,0.27128389865182884,C,1053,Correct
2,relearn,1,575,A,41.994057127537964,38.623969701090076,2.099702856376898,0.6067038973270968,A,1045,Correct
2,relearn,1,576,C,85.80499867420389,61.74886003087315,4.290249933710195,0.9699488252026774,C,696,Incorrect
2,relearn,1,577,A,41.033591978029825,40.78873711902575,2.051679598901491,0.640707984411683,B,661,Correct
2,relearn,1,578,A,19.47538440151484,41.2477595941873,0.9737692200757421,0.6479182925906837,A,765,Correct
2,relearn,1,579,A,39.63092456045571,33.18327299654425,1.9815462280227853,0.5212416333400398,B,855,Correct
2,relearn,1,580,B,54.802629444622916,50.92517263845191,2.7401314722311456,0.7999307412187624,C,588,Incorrect
2,relearn,1,581,C,67.11211499360155,73.07928801203153,3.3556057496800777,1.1479267717408546,D,809,Incorrect
2,relearn,1,582,B,35.78430684631651,74.02944017354824,1.7892153423158255,1.162851726992921,B,1146,Incorrect
2,relearn,1,583,A,34.39172649411712,57.69269300003976,1.719586324705856,0.9062347024736809,A,672,Incorrect
2,relearn,1,584,A,29.178244362428554,65.42963230235267,1.4589122181214276,1.0277662608407627,C,462,Incorrect
2,relearn,1,585,C,63.28843789609686,39.19913901893574,3.1644218948048426,0.6157386358446677,C,749,Correct
2,relearn,1,586,D,38.64005391318649,16.78465400326413,1.9320026956593244,0.26365272854850547,B,1189,Incorrect
2,relearn,1,587,A,1.4482774521072876,51.473817373080685,0.07241387260536439,0.8085488325574646,A,549,Incorrect
2,relearn,1,588,C,74.52271407758448,51.24584364989573,3.7261357038792244,0.8049678296876177,C,749,Incorrect
2,relearn,1,589,C,74.100678195747,71.523310171716,3.7050339097873497,1.1234855289794354,C,647,Incorrect
2,relearn,1,590,B,44.12913308328088,59.46551778398729,2.2064566541640436,0.9340821690604385,A,1357,Incorrect
2,relearn,1,591,A,48.470266652283605,57.00453396792814,2.4235133326141804,0.8954251256747644,B,789,Incorrect
2,relearn,1,592,A,47.39261894714294,49.14968308440304,2.3696309473571473,0.7720414165211356,C,439,Correct
2,relearn,1,593,C,73.11023603278781,55.9871605634323,3.6555118016393906,0.8794442616071554,D,796,Incorrect
2,relearn,1,594,C,73.13098441653885,31.841826237529318,3.6565492208269426,0.5001702369235241,C,718,Incorrect
2,relearn,1,595,D,54.0600085257147,45.431286214715556,2.703000426285735,0.7136329750764282,B,850,Correct
2,relearn,1,596,C,69.40336162070568,60.323652533656954,3.4701680810352844,0.9475617181872001,C,767,Correct
2,relearn,1,597,B,61.27823090797179,75.86741988333455,3.063911545398589,1.1917226447614802,C,1561,Incorrect
2,relearn,1,598,C,79.05817873970145,67.63418407972885,3.9529089369850725,1.0623952791820794,C,1061,Correct
2,relearn,1,599,C,86.76996304260186,42.31937304801075,4.338498152130093,0.6647511573607823,D,1099,Incorrect
2,relearn,1,600,B,75.3592352480369,82.7397550500514,3.767961762401845,1.2996730331253024,C,679,Incorrect
2,relearn,1,601,B,42.335890009112816,51.431964528940085,2.1167945004556405,0.8078914096190452,B,3327,Correct
2,relearn,1,602,C,62.1737657014734,61.46806905089799,3.10868828507367,0.9655381708032561,C,621,Correct
2,relearn,1,603,D,55.445733083519,14.65159133420316,2.7722866541759505,0.2301466584946626,B,1224,Incorrect
2,relearn,1,604,B,40.245616379468075,65.64575326078605,2.0122808189734034,1.0311610809172684,A,781,Incorrect
2,relearn,1,605,A,14.694314028990332,61.42273021126212,0.7347157014495166,0.9648259899756447,A,684,Correct
2,relearn,1,606,B,25.056107047626433,70.27965744093333,1.2528053523813216,1.1039502775662169,A,1492,Incorrect
2,relearn,1,607,A,43.70740857322197,60.19721398995017,2.1853704286610984,0.9455756261870009,C,864,Incorrect
2,relearn,1,608,C,93.31080527035407,41.55071899463533,4.665540263517704,0.6526771677246012,C,1684,Correct
2,relearn,1,609,D,35.62760246861254,38.94336298387739,1.7813801234306268,0.6117209152811495,B,967,Incorrect
2,relearn,1,610,B,58.60331324794726,75.90387665830947,2.9301656623973633,1.1922953064436541,C,630,Incorrect
2,relearn,1,611,D,34.213008143214296,28.869790016664965,1.7106504071607147,0.45348560113517306,A,1054,Incorrect
2,relearn,1,612,B,69.01106976050285,58.076872421620756,3.4505534880251423,0.9122693787161771,D,1653,Incorrect
2,relearn,1,613,B,54.234887035894744,62.37122521095611,2.7117443517947373,0.979724914590671,C,845,Incorrect
2,relearn,1,614,A,12.939649570087834,34.302984251645704,0.6469824785043917,0.5388300166058826,A,767,Correct
2,relearn,1,615,B,32.42085299725716,71.82816700221736,1.6210426498628578,1.1282742088749342,B,677,Correct
2,relearn,1,616,D,58.885064584475806,49.14461306899051,2.9442532292237904,0.7719617769052676,C,653,Incorrect
2,relearn,1,617,B,61.74514266879823,82.75123215471274,3.0872571334399117,1.2998533150637452,C,1151,Incorrect
2,relearn,1,618,B,53.50468362139239,89.40613238332755,2.675234181069619,1.4043882434066917,C,731,Incorrect
2,relearn,1,619,C,101.60270818622294,48.36881469795916,5.080135409311147,0.7597755645897725,C,536,Correct
2,relearn,1,620,C,69.78384894208342,32.113943617051135,3.489192447104171,0.5044446467256234,C,2028,Correct
2,relearn,1,621,B,41.32857355593069,94.78360169591318,2.0664286777965346,1.4888573338433095,D,493,Incorrect
2,relearn,1,622,B,25.50616630093315,82.03633994208708,1.2753083150466573,1.2886238144472786,B,767,Correct
2,relearn,1,623,C,78.28118091610017,39.505026093522986,3.9140590458050086,0.6205434987764245,C,725,Correct
2,relearn,1,624,A,40.2022554832224,36.17228508381062,2.0101127741611204,0.5681929254142756,B,1340,Incorrect
2,relearn,1,625,A,18.64097552282466,28.27632131525132,0.932048776141233,0.44416341657269015,A,1055,Correct
2,relearn,1,626,C,92.5996093945335,69.59574989596888,4.629980469726675,1.0932074829712422,C,893,Correct
2,relearn,1,627,A,45.32291197211977,55.49120947792675,2.266145598605988,0.871653880173335,A,837,Correct
2,relearn,1,628,D,73.74579190307908,15.087685013712873,3.687289595153954,0.2369968019937859,C,832,Incorrect
2,relearn,1,629,C,73.95478535730405,26.669219138398084,3.6977392678652024,0.4189191146108386,C,748,Correct
2,relearn,1,630,B,28.629558561733795,76.72456509299337,1.4314779280866898,1.2051866502300992,B,1503,Correct
2,relearn,1,631,D,63.77122168349989,24.909126766955545,3.1885610841749945,0.39127164829202205,C,748,Incorrect
2,relearn,1,632,B,63.82311896127298,61.32317157412157,3.191155948063649,0.9632621265604336,C,743,Incorrect
2,relearn,1,633,B,50.91820937047447,62.938965322671706,2.5459104685237235,0.9886429554112409,C,461,Incorrect
2,relearn,1,634,D,41.366433153092856,16.019775836769867,2.068321657654643,0.2516380504047575,D,1423,Correct
2,relearn,1,635,C,56.691028644832855,46.58182105820794,2.8345514322416427,0.731705534136502,C,678,Correct
2,relearn,1,636,D,45.91373596934136,5.221177218973249,2.295686798467068,0.08201405997108374,B,1891,Incorrect
2,relearn,1,637,C,88.41764657775128,72.90141416292,4.420882328887564,1.145132735852682,C,576,Correct
2,relearn,1,638,C,57.62224238721316,57.27015026559851,2.8811121193606586,0.899597416721939,B,1381,Incorrect
2,relearn,1,639,B,54.03759081766746,89.83761763113138,2.7018795408833727,1.411165997829856,D,984,Incorrect
2,relearn,1,640,D,43.96149596364901,19.7610426318273,2.1980747981824504,0.31040573179711684,C,787,Incorrect
2,relearn,1,641,D,56.51994728063636,37.87534275348693,2.825997364031818,0.5949444927327499,B,1167,Incorrect
2,relearn,1,642,C,86.6460663248988,44.462089688296004,4.33230331624494,0.6984088716400061,C,453,Correct
2,relearn,1,643,A,43.87207553850932,33.64095767452292,2.1936037769254657,0.5284309274500318,A,1701,Correct
2,relearn,1,644,C,82.812510225797,33.59373101440511,4.14062551128985,0.5276890928076334,C,566,Correct
2,relearn,1,645,A,34.36448653752388,30.383446544769548,1.7182243268761939,0.477262062278931,A,550,Correct
2,relearn,1,646,C,64.4706170113043,66.79658976133939,3.223530850565215,1.0492383783953751,C,746,Correct
2,relearn,1,647,B,45.85232898819109,65.04306002328926,2.2926164494095547,1.0216939976808275,A,552,Incorrect
2,relearn,1,648,A,41.84528991155992,67.1665020810828,2.0922644955779957,1.0550489475262663,B,1072,Incorrect
2,relearn,1,649,A,39.175640126919305,37.235936046209105,1.958782006345965,0.5849007156615494,D,947,Incorrect
2,relearn,1,650,C,49.585676694230166,44.947528896338866,2.479283834711508,0.7060341328887656,C,613,Correct
2,relearn,1,651,D,70.63016893568647,24.178907286790988,3.5315084467843234,0.37980138752005643,C,630,Incorrect
2,relearn,1,652,C,84.82531063818911,32.20235953896105,4.241265531909455,0.505833480779286,C,718,Correct
2,relearn,1,653,D,46.61712404490877,22.541845880882324,2.3308562022454384,0.35408648708866625,D,1559,Correct
2,relearn,1,654,C,70.42643034124474,26.500492519856454,3.521321517062237,0.4162687630844615,C,1092,Correct
2,relearn,1,655,B,62.36057287112054,89.02215024561717,3.118028643556027,1.3983566660919884,A,2462,Incorrect
2,relearn,1,656,A,36.6919032959618,41.969732167482114,1.83459516479809,0.6592590112524651,B,685,Incorrect
2,relearn,1,657,D,27.19239397580005,23.31622261171907,1.3596196987900027,0.3662503683322042,A,1431,Incorrect
2,relearn,1,658,D,49.61945585917519,45.647101966005806,2.4809727929587595,0.7170230009703401,C,723,Incorrect
2,relearn,1,659,C,62.775805341211694,60.2604243955314,3.138790267060585,0.9465685329160229,C,560,Correct
2,relearn,1,660,A,44.85674861674296,58.83963795879464,2.242837430837148,0.9242508717561618,A,1188,Correct
2,relearn,1,661,D,35.096943127680404,40.83651870035932,1.75484715638402,0.6414585357361552,B,1619,Incorrect
2,relearn,1,662,C,92.08194960984547,44.848482763426034,4.604097480492274,0.7044783198711384,C,465,Correct
2,relearn,1,663,B,57.957987092357115,100.15195162256555,2.897899354617856,1.5731831773006613,D,942,Incorrect
2,relearn,1,664,D,63.599197658316434,3.2095015240324507,3.179959882915822,0.050414732047927964,D,798,Correct
2,relearn,1,665,A,18.69640989234593,46.37601711519682,0.9348204946172964,0.7284727733592842,B,1062,Incorrect
2,relearn,1,666,C,80.9755559284364,24.98247164069397,4.04877779642182,0.39242374687459763,C,605,Correct
2,relearn,1,667,C,90.43374159084209,60.04706847797298,4.5216870795421045,0.9432171460000158,C,908,Correct
2,relearn,1,668,D,31.96325870794782,6.548625056658015,1.598162935397391,0.10286556184555432,D,1220,Correct
2,relearn,1,669,C,93.36363323314328,39.93841315562052,4.668181661657163,0.6273511268286569,C,990,Correct
2,relearn,1,670,C,49.25714779312317,45.16564679915036,2.4628573896561585,0.7094603208942106,C,950,Correct
2,relearn,1,671,A,25.310836652958905,61.05845779556145,1.265541832647945,0.9591040122502914,C,982,Incorrect
2,relearn,1,672,A,43.51327079654182,57.77008847562719,2.1756635398270907,0.9074504277613138,C,1325,Incorrect
2,relearn,1,673,A,38.324825005619985,72.20689925692324,1.9162412502809991,1.1342233212202415,A,965,Correct
2,relearn,1,674,D,55.13014223633351,22.60655547941855,2.756507111816676,0.355102943085557,A,1205,Incorrect
2,relearn,1,675,A,25.577120887421504,56.45020848875426,1.2788560443710753,0.8867178014094127,A,1055,Correct
2,relearn,1,676,D,48.539999564173876,0.6753194237896665,2.426999978208694,0.010607892703020542,D,893,Correct
2,relearn,1,677,C,93.34919253269429,33.94835390195547,4.667459626634715,0.5332594960992485,C,619,Correct
2,relearn,1,678,A,17.925956714843593,37.709794412441596,0.8962978357421797,0.5923440654725398,A,944,Correct
2,relearn,1,679,D,44.621263760901016,46.059599268613354,2.2310631880450504,0.7235024934478277,C,894,Incorrect
2,relearn,1,680,A,29.197401861971898,33.96850877736876,1.459870093098595,0.5335760881419105,A,1036,Correct
2,relearn,1,681,C,50.074799176997345,41.17239622822051,2.5037399588498674,0.6467344876063283,A,1468,Incorrect
2,relearn,1,682,A,18.661387757502656,63.138282533823386,0.9330693878751327,0.9917738228426817,A,752,Correct
2,relearn,1,683,D,28.38485292509813,18.805182872456566,1.4192426462549066,0.29539112180761073,A,1261,Incorrect
2,relearn,1,684,C,92.00028328584644,52.5216817081186,4.600014164292322,0.8250086470420339,C,612,Correct
2,relearn,1,685,D,60.240652150523296,35.502163441488555,3.0120326075261645,0.5576666792716228,A,1200,Incorrect
2,relearn,1,686,B,32.95213708431178,93.31207343277818,1.6476068542155888,1.4657426219382361,B,1326,Correct
2,relearn,1,687,A,41.566562068872344,42.91701190846883,2.078328103443617,0.6741388466283567,C,869,Incorrect
2,relearn,1,688,C,84.50181978478817,43.99922039268314,4.225090989239408,0.6911381377466579,C,629,Correct
2,relearn,1,689,B,62.40126761490606,70.26008836384939,3.120063380745303,1.1036428872221946,A,1391,Incorrect
2,relearn,1,690,B,39.037469284140045,99.06789184714847,1.9518734642070024,1.556154806168149,D,845,Incorrect
2,relearn,1,691,B,61.32340475920472,53.59399848251626,3.066170237960236,0.8418525595458781,C,766,Incorrect
2,relearn,1,692,D,32.281806272591446,16.226213801099235,1.6140903136295721,0.25488077036555334,D,1020,Correct
2,relearn,1,693,D,41.01173814961708,4.416086720343134,2.050586907480854,0.06936772799122717,D,621,Correct
2,relearn,1,694,B,60.569653410147154,69.47612699648762,3.028482670507358,1.091328450860185,C,848,Incorrect
2,relearn,1,695,A,29.35249487972156,74.58663949388033,1.4676247439860781,1.1716041934496237,C,1183,Incorrect
2,relearn,1,696,D,38.81043959526568,48.597265150141894,1.9405219797632838,0.7633640559012053,A,1293,Incorrect
2,relearn,1,697,A,19.086540803829084,34.48486642715348,0.9543270401914542,0.5416870151378533,A,810,Correct
2,relearn,1,698,D,56.12697794671146,3.2350647167765167,2.8063488973355732,0.05081627774056325,D,661,Correct
2,relearn,1,699,D,67.64501655037432,16.025811398002553,3.3822508275187158,0.25173285677890195,C,1696,Incorrect
2,relearn,1,700,B,65.92186011044747,88.19384727288188,3.2960930055223736,1.38534571342153,B,1012,Correct
2,relearn,1,701,A,28.917343398581124,63.42661257768932,1.4458671699290562,0.9963029005807738,C,750,Incorrect
2,relearn,1,702,D,53.120683807822616,30.23698389896063,2.656034190391131,0.4749614324184378,C,811,Incorrect
2,relearn,1,703,C,100.06499264446366,59.0905817496366,5.0032496322231825,0.9281926876050272,C,689,Correct
2,relearn,1,704,B,41.68720695879583,53.80022942132318,2.0843603479397914,0.8450920275573719,A,957,Incorrect
2,relearn,1,705,A,5.907336496073054,49.37700941288925,0.29536682480365267,0.7756122501388347,A,706,Correct
2,relearn,1,706,A,27.001157968111166,36.08877210536872,1.3500578984055582,0.566881106616513,C,1200,Incorrect
2,relearn,1,707,A,7.442250151058225,35.45235808049404,0.37211250755291125,0.5568843384905741,A,716,Correct
2,relearn,1,708,D,52.81899366286339,6.213284129215122,2.640949683143169,0.0975980388750414,C,1152,Incorrect
2,relearn,1,709,B,43.51458240134858,65.45471138765156,2.175729120067429,1.0281602021914316,C,589,Incorrect
2,relearn,1,710,D,63.59485120720733,16.022406945910497,3.1797425603603666,0.2516793797704925,C,893,Incorrect
2,relearn,1,711,C,85.08235068789403,42.90826894254024,4.254117534394702,0.6740015124406975,C,565,Correct
2,relearn,1,712,C,84.29284955769778,36.02409442912658,4.2146424778848885,0.5658651520538451,C,663,Correct
2,relearn,1,713,D,44.5687415053441,7.870024523476097,2.228437075267205,0.12362205613262008,D,867,Correct
2,relearn,1,714,B,35.25209093861063,77.19485975739673,1.7626045469305314,1.2125740215436596,A,1919,Incorrect
2,relearn,1,715,D,38.576460554747996,39.548571939251794,1.9288230277373999,0.6212275153216044,C,723,Incorrect
2,relearn,1,716,B,24.448476732101025,68.43967122702408,1.2224238366050513,1.0750478417045979,B,895,Correct
2,relearn,1,717,B,48.35762891544925,73.58966320561727,2.4178814457724624,1.1559437265345716,C,604,Incorrect
2,relearn,1,718,D,61.89404244701578,23.202343226753204,3.0947021223507885,0.3644615551361838,C,1656,Incorrect
2,relearn,1,719,B,49.0576136503697,91.68289937058614,2.4528806825184852,1.4401516156122285,B,986,Correct
2,relearn,1,720,B,40.972687111027106,73.80514382817383,2.0486343555513553,1.1593284882386448,C,1319,Incorrect
2,relearn,1,721,B,46.57616495434321,82.29975914325873,2.3288082477171606,1.2927615935833552,A,941,Incorrect
2,relearn,1,722,A,17.972875347256362,55.99469971468142,0.8986437673628181,0.8795626863180481,B,414,Incorrect
2,relearn,1,723,B,51.03417823496247,59.51321737610319,2.5517089117481233,0.9348314325012911,B,1123,Correct
2,relearn,1,724,C,71.66107278590354,30.840350490764052,3.5830536392951773,0.4844390926795936,C,783,Correct
2,relearn,1,725,A,6.745396257169002,66.59116434191058,0.33726981285845015,1.0460115634526843,A,779,Correct
2,relearn,1,726,B,34.94086489463819,54.09559290746542,1.7470432447319095,0.8497315863483875,B,1021,Correct
2,relearn,1,727,A,33.17651155319088,47.83316457593223,1.658825577659544,0.7513615921485011,A,1472,Correct
2,relearn,1,728,C,54.10725693652514,64.92247734209707,2.705362846826257,1.0197998893539097,C,692,Correct
2,relearn,1,729,A,43.201992054299666,37.07442594103115,2.1600996027149835,0.5823637208620116,C,797,Incorrect
2,relearn,1,730,A,15.215252508519692,33.85269366054012,0.7607626254259846,0.531756868540893,A,726,Correct
2,relearn,1,731,B,44.63104696272907,55.049110571367144,2.2315523481364536,0.8647094067882962,C,864,Incorrect
2,relearn,1,732,A,17.752231374924598,27.636440833431497,0.8876115687462299,0.43411219746838675,A,515,Correct
2,relearn,1,733,C,76.34436228588606,66.92556491646326,3.8172181142943034,1.051264315394539,C,678,Correct
2,relearn,1,734,D,32.78392085368155,22.622964955228127,1.6391960426840775,0.35536070252882007,B,838,Incorrect
2,relearn,1,735,D,70.2099057045123,13.426650279371199,3.5104952852256144,0.2109053293999595,C,725,Incorrect
2,relearn,1,736,C,51.67496282002031,37.97989259845347,2.5837481410010157,0.5965867578571539,A,1532,Incorrect
2,relearn,1,737,B,49.656441597947875,67.89577989126336,2.482822079897394,1.066504416580713,B,927,Correct
2,relearn,1,738,B,76.23116635950115,69.94000788761045,3.811558317975057,1.0986150748586458,C,675,Incorrect
2,relearn,1,739,B,42.58585688352174,83.93903182677252,2.1292928441760868,1.318511228682142,B,1056,Correct
2,relearn,1,740,D,60.301781746121236,35.86504716549765,3.015089087306062,0.5633668434788942,B,1167,Incorrect
2,relearn,1,741,B,49.415539736597715,98.38223836871664,2.4707769868298857,1.5453845865144005,B,1524,Correct
2,relearn,1,742,B,53.878536278507816,89.48197352875148,2.693926813925391,1.40557955333321,B,1478,Correct
2,relearn,1,743,D,57.469373711222175,6.580524377929354,2.8734686855611087,0.10336663521235702,D,1008,Correct
2,relearn,1,744,C,80.04919060236614,55.987577801509474,4.002459530118307,0.8794508155675457,C,677,Correct
2,relearn,1,745,D,54.56655835205049,2.1483147664004782,2.728327917602525,0.033745649438611074,D,1011,Correct
2,relearn,1,746,A,15.937317619584887,25.210940490218096,0.7968658809792443,0.3960125271707931,A,704,Correct
2,relearn,1,747,B,45.23347465787537,53.00072890015011,2.2616737328937684,0.8325335027380791,B,1613,Correct
2,relearn,1,748,B,47.28781173790415,49.88885493809699,2.3643905868952073,0.7836523008476618,C,1007,Incorrect
2,relearn,1,749,A,45.812317405372454,57.37218233358287,2.290615870268623,0.9012001326979902,B,747,Incorrect
2,relearn,1,750,D,53.82944754687075,41.79601337458686,2.691472377343538,0.6565302428347142,C,607,Incorrect
2,relearn,1,751,C,98.85032148611369,47.158926392696834,4.942516074305684,0.7407706835323908,C,628,Correct
2,relearn,1,752,A,32.339406419731056,59.17463178450943,1.616970320986553,0.9295129424654796,A,1031,Correct
2,relearn,1,753,C,98.46179719102852,47.126660104312556,4.923089859551426,0.7402638458596577,C,655,Correct
2,relearn,1,754,A,35.543841819293014,68.23732506361185,1.7771920909646508,1.0718693956023084,A,628,Correct
2,relearn,1,755,C,100.88481534297267,56.326803431481025,5.044240767148634,0.8847793593026858,C,662,Correct
2,relearn,1,756,C,93.28636091606072,59.961478577713365,4.664318045803036,0.9418727029906304,C,642,Correct
2,relearn,1,757,B,47.94278281184427,71.44608788362605,2.3971391405922136,1.1222725241146516,A,798,Incorrect
2,relearn,1,758,A,38.50402091259911,47.36548458384234,1.9252010456299555,0.7440152920115983,A,1232,Correct
2,relearn,1,759,B,52.55596539171812,83.66566385372154,2.627798269585906,1.3142171746028235,B,1119,Correct
2,relearn,1,760,B,52.09687111340976,79.41042831200289,2.604843555670488,1.247376091017036,B,980,Correct
2,relearn,1,761,C,93.33242686737744,54.16494754915612,4.666621343368871,0.8508210065125266,C,511,Correct
2,relearn,1,762,A,8.887547732777392,58.79479706663546,0.4443773866388696,0.9235465126692235,A,611,Correct
2,relearn,1,763,C,78.39977767408085,33.315528118638454,3.9199888837040424,0.5233190919398938,C,701,Correct
2,relearn,1,764,C,60.4065949920279,29.792411452961666,3.020329749601395,0.467978104766744,B,1208,Incorrect
2,relearn,1,765,C,61.06368086514035,39.82608548652299,3.0531840432570174,0.6255866879284986,C,579,Correct
2,relearn,1,766,A,5.595165287805621,55.33707967352001,0.27975826439028106,0.8692328148672176,A,574,Correct
2,relearn,1,767,B,53.068990667191514,83.77110068840202,2.653449533359576,1.315873372529073,B,1135,Correct
2,relearn,1,768,C,76.87264076989297,53.009589440852956,3.8436320384946487,0.8326726837859736,C,459,Correct
2,relearn,1,769,D,75.23376390415449,33.07515842380847,3.7616881952077246,0.5195433736027762,C,558,Incorrect
2,relearn,1,770,A,25.184420527789403,68.04843534066704,1.25922102638947,1.068902322772598,A,503,Correct
2,relearn,1,771,B,36.813915238778364,79.23689500651865,1.8406957619389182,1.244650236228724,A,893,Incorrect
2,relearn,1,772,C,68.71381319486211,39.11550111980762,3.4356906597431056,0.6144248547973545,C,734,Correct
2,relearn,1,773,B,44.475683831719614,71.68019925597703,2.2237841915859806,1.12594993695215,B,965,Correct
2,relearn,1,774,D,47.12547424361986,-0.15785295433357405,2.356273712180993,-0.0024795484084090065,D,789,Correct
2,relearn,1,775,A,41.269300978944585,35.14351146873206,2.0634650489472293,0.5520329872575864,B,911,Incorrect
2,relearn,1,776,D,43.90627053151021,24.371040168949783,2.1953135265755104,0.3828194037755719,B,1790,Incorrect
2,relearn,1,777,D,30.388542303729814,9.287360291600569,1.5194271151864909,0.14588551431666955,A,861,Incorrect
2,relearn,1,778,C,66.32341296339436,33.44737448578519,3.3161706481697184,0.5253901298320471,C,582,Correct
2,relearn,1,779,C,55.903296607887256,41.497100317609075,2.7951648303943624,0.6518349275153967,C,2087,Correct
2,relearn,1,780,D,74.67518596090888,21.485596750216725,3.733759298045444,0.337494964542368,C,757,Incorrect
2,relearn,1,781,A,27.590798260225085,33.04913256925731,1.3795399130112542,0.5191345604354697,A,651,Correct
2,relearn,1,782,D,61.42732960036648,3.5533119856982935,3.071366480018324,0.0558152941509116,D,701,Correct
2,relearn,1,783,B,41.797121919190005,73.30003851793026,2.0898560959595,1.1513943125788928,C,742,Incorrect
2,relearn,1,784,D,32.027333142890356,12.869279279346285,1.601366657144518,0.2021501662049482,A,716,Incorrect
2,relearn,1,785,A,11.049343541537102,54.93208499404599,0.552467177076855,0.8628711733183251,A,757,Correct
2,relearn,1,786,C,100.61661442032344,51.770090230234665,5.030830721016172,0.8132026757149297,C,3311,Correct
2,relearn,1,787,A,11.477221383338135,55.21010470676146,0.5738610691669067,0.8672382967534253,A,884,Correct
2,relearn,1,788,C,72.12353199878189,69.61224885772329,3.6061765999390945,1.0934666480564397,C,894,Correct
2,relearn,1,789,B,36.716185422963676,67.39923079091328,1.835809271148184,1.0587046415516805,C,1851,Incorrect
2,relearn,1,790,A,17.628965969420708,42.3577944495493,0.8814482984710353,0.665354679324853,B,817,Incorrect
2,relearn,1,791,A,0.819125078479523,53.31514559064554,0.04095625392397615,0.8374723485632115,A,638,Correct
2,relearn,1,792,A,45.6334866473858,57.699206036308105,2.28167433236929,0.906337009008147,B,1796,Incorrect
2,relearn,1,793,D,45.3019346493639,32.17387327985729,2.2650967324681948,0.5053860196676431,B,1152,Incorrect
2,relearn,1,794,B,25.32519580707975,84.70751251598003,1.2662597903539876,1.3305824951203415,A,461,Incorrect
2,relearn,1,795,C,62.21328152029484,56.34377354248437,3.1106640760147424,0.8850459251829793,C,627,Correct
2,relearn,1,796,C,100.47044750631358,54.64673381880239,5.023522375315679,0.8583888875391323,C,681,Correct
2,relearn,1,797,A,1.346039736541865,49.46950557332775,0.06730198682709325,0.7770651764294288,A,901,Correct
2,relearn,1,798,D,37.361475419025204,19.272582777621306,1.86807377095126,0.30273302234938126,D,501,Correct
2,relearn,1,799,C,85.46658752372926,39.67212375544918,4.273329376186463,0.6231682627121212,C,532,Correct
2,relearn,1,800,B,34.173501607150044,74.3297892801443,1.7086750803575024,1.1675695997268936,B,1366,Correct
2,relearn,1,801,B,61.648416319355604,96.9837137912931,3.08242081596778,1.5234166138229075,B,1447,Correct
2,relearn,1,802,B,70.14695582254237,91.2184701041906,3.5073477911271187,1.4328563777551266,B,903,Correct
2,relearn,1,803,D,59.911179035595325,40.89126188194753,2.995558951779766,0.6423184396217134,C,1284,Incorrect
2,relearn,1,804,A,5.913343013089598,56.50456317655104,0.2956671506544799,0.8875716028487655,A,559,Correct
2,relearn,1,805,D,31.53611817868208,16.949577921335443,1.576805908934104,0.2662433473955759,D,1237,Correct
2,relearn,1,806,B,46.37096931610845,89.05136973340105,2.3185484658054225,1.3988156447328057,C,667,Incorrect
2,relearn,1,807,D,28.211698892124435,32.607477263438085,1.4105849446062217,0.5121970551145665,C,591,Incorrect
2,relearn,1,808,D,66.26271603154163,35.82746282607925,3.3131358015770815,0.5627764700558598,B,743,Incorrect
2,relearn,1,809,A,21.827066411812947,73.0667838628469,1.0913533205906474,1.1477303570247654,B,1061,Incorrect
2,relearn,1,810,A,35.68642456332897,46.94780206847111,1.7843212281664484,0.7374543504024826,C,484,Incorrect
2,relearn,1,811,A,32.23023407891304,51.33168038875254,1.6115117039456521,0.8063161500286212,A,447,Correct
2,relearn,1,812,C,63.38291910015941,31.417851530602544,3.169145955007971,0.49351045780057895,C,669,Correct
2,relearn,1,813,A,17.83365937021188,49.33986670351134,0.8916829685105939,0.7750288138242544,A,1016,Correct
2,relearn,1,814,B,32.50464057210087,74.62693193836404,1.6252320286050435,1.17223710568755,B,733,Correct
2,relearn,1,815,B,27.413401950206385,85.66559805867917,1.3706700975103192,1.3456320676326126,B,1379,Correct
2,relearn,1,816,C,73.60989572731427,52.12317867507461,3.6804947863657134,0.818748976036813,C,782,Correct
2,relearn,1,817,D,41.2627289040899,16.8941414030093,2.0631364452044947,0.2653725526020059,D,774,Correct
2,relearn,1,818,A,1.6972492545035927,40.03637109919954,0.08486246272517964,0.6288898466081999,A,726,Correct
2,relearn,1,819,B,46.88128125375008,65.3661117015453,2.344064062687504,1.0267684815765226,B,1142,Correct
2,relearn,1,820,D,41.85091318392464,29.87848790622133,2.0925456591962317,0.469330190532782,C,876,Incorrect
2,relearn,1,821,B,67.03593703600376,91.30777241636115,3.351796851800188,1.4342591351944447,C,888,Incorrect
2,relearn,1,822,B,65.13594862092044,62.588760718199076,3.256797431046022,0.9831419543479183,C,845,Incorrect
2,relearn,1,823,A,26.394351683244604,61.65630775591723,1.3197175841622302,0.9684950174673047,A,1062,Correct
2,relearn,1,824,A,39.77505013740854,55.32490960640081,1.988752506870427,0.8690416478999407,B,859,Incorrect
2,relearn,1,825,B,74.19463486799361,63.62992262757655,3.7097317433996806,0.9994964873764071,C,1086,Incorrect
2,relearn,1,826,C,71.51543167352828,32.99255231882914,3.575771583676414,0.5182457999400526,A,1046,Incorrect
2,relearn,1,827,C,58.686553358990395,64.96438681433006,2.93432766794952,1.020458201804325,C,671,Correct
2,relearn,1,828,B,61.905339876572576,65.53524584106208,3.095266993828629,1.0294252344274084,C,1098,Incorrect
2,relearn,1,829,B,37.47658841556485,68.71831517679016,1.8738294207782422,1.0794247706323599,A,3032,Incorrect
2,relearn,1,830,D,45.85553108123709,12.00291406455537,2.292776554061854,0.1885413332343838,D,675,Correct
2,relearn,1,831,A,36.5783405823046,34.917186066713526,1.82891702911523,0.5484778761560756,C,967,Incorrect
2,relearn,1,832,D,64.62141477602732,38.11652552808687,3.231070738801366,0.5987329828970276,C,855,Incorrect
2,relearn,1,833,D,61.806116537445064,31.02353631282166,3.090305826872253,0.4873165688436836,B,771,Incorrect
2,relearn,1,834,C,87.65998580104902,69.63648146089464,4.38299929005245,1.093847292896942,C,750,Correct
2,relearn,1,835,C,88.30473469513358,38.46229373725686,4.415236734756679,0.6041642972258943,C,750,Correct
2,relearn,1,836,A,40.258641018970664,49.36189904411296,2.012932050948533,0.7753748970211316,C,750,Incorrect
2,relearn,1,837,B,38.02877094329153,87.7135156782473,1.9014385471645767,1.3778006823765743,B,1438,Correct
2,relearn,1,838,C,76.18955166834265,72.79741544936539,3.809477583417132,1.143499127880252,C,1284,Correct
2,relearn,1,839,A,5.705110092404453,47.87798203281406,0.28525550462022264,0.7520655831149637,A,743,Correct
2,relearn,1,840,B,32.220274255564064,62.40599716201166,1.6110137127782032,0.9802711111206067,C,749,Incorrect
2,relearn,1,841,B,49.36440275945237,99.13702110890452,2.4682201379726183,1.5572406860725538,D,1055,Incorrect
2,relearn,1,842,A,37.53818273129128,38.03953629651955,1.8769091365645638,0.5975236388755405,C,1316,Incorrect
2,relearn,1,843,C,60.92308024537387,64.6495127702191,3.046154012268693,1.0155121718853994,C,700,Correct
2,relearn,1,844,B,47.4016571547038,77.92427424374124,2.37008285773519,1.224031637502269,B,1367,Correct
2,relearn,1,845,B,68.04808160917227,71.52514083496463,3.4024040804586138,1.123514284970501,C,941,Incorrect
2,relearn,1,846,B,71.3148546801945,75.34371066557165,3.565742734009725,1.1834962396057742,B,662,Correct
2,relearn,1,847,D,45.18775947798948,-1.2939893109252658,2.259387973899474,-0.02032593656513267,D,854,Correct
2,relearn,1,848,C,88.5377482140197,66.68315324408009,4.426887410700985,1.047456521749022,C,1141,Correct
2,relearn,1,849,D,37.24590163198107,13.89897668240027,1.8622950815990535,0.2183246151892226,D,1271,Correct
2,relearn,1,850,A,32.22321536822102,26.804413093082445,1.611160768411051,0.4210427362850693,C,1748,Incorrect
2,relearn,1,851,B,36.87861949926554,73.3274639520575,1.843930974963277,1.1518251102907713,B,1045,Correct
2,relearn,1,852,C,93.49491888339128,58.66017364975783,4.674745944169564,0.9214318529819039,C,837,Correct
2,relearn,1,853,A,45.008395351244744,57.12071547382353,2.2504197675622373,0.8972501005017841,A,982,Correct
2,relearn,1,854,A,19.69550688269775,61.191971190125116,0.9847753441348874,0.9612012357478766,A,725,Correct
2,relearn,1,855,B,71.97817085443464,77.12285677752664,3.598908542721732,1.2114430013806774,C,781,Incorrect
2,relearn,1,856,D,33.22521381091509,22.615411957488988,1.6612606905457545,0.3552420603177708,D,917,Correct
2,relearn,1,857,D,59.220685242417304,18.61395020784243,2.961034262120865,0.29238724613621986,D,752,Correct
2,relearn,1,858,A,14.513134074527324,30.483355650678835,0.7256567037263661,0.4788314308446877,D,819,Incorrect
2,relearn,1,859,C,79.2079204513088,49.36466958604111,3.9603960225654395,0.7754184165919712,C,695,Correct
2,relearn,1,860,B,36.39411655835943,84.34875324906524,1.8197058279179714,1.3249471177336076,D,725,Incorrect
2,relearn,1,861,B,44.52473048283724,51.99481677228772,2.226236524141862,0.8167326719828323,C,1447,Incorrect
2,relearn,1,862,A,49.643008711889806,47.802664247375695,2.4821504355944906,0.7508824941078746,B,1158,Incorrect
2,relearn,1,863,C,81.45777914474058,50.65388070289105,4.072888957237029,0.7956692974600816,C,694,Correct
2,relearn,1,864,B,51.40657011617033,56.42471897867466,2.5703285058085164,0.8863174131213645,B,1612,Correct
2,relearn,1,865,D,61.602607327503904,15.66080218660522,3.080130366375195,0.2459993054938097,D,822,Correct
2,relearn,1,866,A,19.971113090738843,50.59318044770982,0.9985556545369421,0.7947158200813397,A,461,Correct
2,relearn,1,867,D,52.50367676153033,34.597556456189885,2.625183838076516,0.5434571459746214,B,1454,Incorrect
2,relearn,1,868,D,62.1082285789097,23.418349423450262,3.105411428945485,0.36785457253955056,D,1013,Correct
2,relearn,1,869,A,32.14822657391784,43.7705056972788,1.607411328695892,0.6875454957124064,C,1567,Incorrect
2,relearn,1,870,C,58.54723989796569,64.85458894725599,2.9273619948982845,1.018733500941426,C,1125,Correct
2,relearn,1,871,A,8.685868596120383,39.496336565930875,0.43429342980601915,0.6204070039961919,A,611,Correct
2,relearn,1,872,C,68.84002025761204,41.44625387050706,3.442001012880602,0.6510362333920126,C,668,Correct
2,relearn,1,873,D,71.24944912188305,36.775195760256935,3.5624724560941523,0.5776634241737485,C,1270,Incorrect
2,relearn,1,874,D,73.03811461329943,12.375302783554815,3.651905730664971,0.19439080155382563,D,1021,Correct
2,relearn,1,875,A,29.419614182219153,43.30308364919638,1.4709807091109577,0.6802032473504982,A,1087,Correct
2,relearn,1,876,D,29.528898124438726,36.999762169077094,1.4764449062219365,0.5811909050747107,B,1101,Incorrect
2,relearn,1,877,C,79.71367700229072,67.67975422406614,3.9856838501145364,1.0631110933354448,C,573,Correct
2,relearn,1,878,B,60.20278957575349,66.77008168573525,3.0101394787876745,1.0488219905174812,D,1591,Incorrect
2,relearn,1,879,A,26.499226848069615,45.24300997569995,1.3249613424034807,0.7106755388297434,A,1036,Correct
2,relearn,1,880,C,76.11643665215105,67.11413582019489,3.8058218326075526,1.0542263802237593,C,798,Correct
2,relearn,1,881,B,33.00970935245486,59.1415303989443,1.6504854676227432,0.9289929871169041,B,1271,Correct
2,relearn,1,882,B,50.595118704625015,91.49667804412944,2.529755935231251,1.437226457856538,B,1055,Correct
2,relearn,1,883,B,34.13808076553633,73.1620995533416,1.7069040382768166,1.1492275723899152,B,1806,Correct
2,relearn,1,884,D,76.31732986135214,27.96142973079954,3.815866493067607,0.4392171111307353,C,676,Incorrect
2,relearn,1,885,B,68.70167208804139,94.11505738063204,3.4350836044020694,1.4783558642958774,B,1212,Correct
2,relearn,1,886,D,34.80317527893038,17.15515223623926,1.740158763946519,0.2694725011829189,D,870,Correct
2,relearn,1,887,B,32.74866376538213,66.11917324439946,1.6374331882691067,1.038597544630181,C,686,Incorrect
2,relearn,1,888,D,56.29213962427917,27.565990420209502,2.8146069812139585,0.4330055649652839,C,668,Incorrect
2,relearn,1,889,D,24.81452159807261,25.515798049071037,1.2407260799036306,0.4008012185072118,A,662,Incorrect
2,relearn,1,890,B,41.5279508334399,86.85003746882956,2.076397541671995,1.3642371983803658,B,958,Correct
2,relearn,1,891,C,83.12565241466257,70.73460939033978,4.156282620733128,1.1110966460761753,C,671,Correct
2,relearn,1,892,B,59.475884296865445,49.909507916108495,2.9737942148432723,0.7839767170676404,C,1181,Incorrect
2,relearn,1,893,D,25.36336780715962,17.534817017838613,1.268168390357981,0.2754362616264153,A,879,Incorrect
2,relearn,1,894,B,61.01131915512907,95.54979269325402,3.0505659577564535,1.5008926338857729,B,1101,Correct
2,relearn,1,895,D,43.23665657911397,40.33977301781252,2.1618328289556983,0.6336556728011979,C,1019,Incorrect
2,relearn,1,896,D,45.77420438019288,21.943593269791247,2.2887102190096438,0.344689157048693,D,829,Correct
2,relearn,1,897,C,87.74503590285696,62.48356188540921,4.387251795142848,0.981489494946624,C,1207,Correct
2,relearn,1,898,C,75.56147959131334,31.236216831445606,3.7780739795656673,0.4906573466180368,C,831,Correct
