experiment,condition,subject,trial,cat,x,y,xt,yt,resp,rt,fb
2,relearn,1,0,B,46.60942391638697,66.01788187873518,2.3304711958193485,1.0370064635789658,A,942,Incorrect
2,relearn,1,1,A,3.242883104950181,62.669494756395906,0.16214415524750905,0.9844101216543871,B,1315,Incorrect
2,relearn,1,2,C,100.43618355820995,45.55863969451343,5.021809177910497,0.7156334388591388,A,376,Incorrect
2,relearn,1,3,A,13.103875574496534,31.011233487232555,0.6551937787248266,0.4871233165112379,A,469,Correct
2,relearn,1,4,A,40.641858979832556,42.96960494434086,2.032092948991628,0.6749649761039845,C,807,Incorrect
2,relearn,1,5,A,50.229464068517686,49.447520743136586,2.5114732034258846,0.7767198395243341,C,686,Incorrect
2,relearn,1,6,A,21.21012230911834,62.780511880610675,1.060506115455917,0.9861539745636663,A,652,Correct
2,relearn,1,7,C,86.19862180463372,38.560896050644246,4.309931090231686,0.6057131387427181,D,762,Incorrect
2,relearn,1,8,D,59.252451872989525,14.90852225848936,2.9626225936494763,0.2341825200157504,C,626,Incorrect
2,relearn,1,9,B,60.97668337496938,87.57659261268392,3.0488341687484692,1.37564989989217,C,845,Incorrect
2,relearn,1,10,A,46.25512184606906,50.99395802964021,2.312756092303453,0.8010112196169195,B,583,Incorrect
2,relearn,1,11,B,45.84973284979303,80.96244718757781,2.2924866424896515,1.2717551465057304,B,358,Correct
2,relearn,1,12,C,89.98916672262594,71.45435898365771,4.499458336131297,1.1224024462501347,B,601,Incorrect
2,relearn,1,13,D,48.5189075626485,-1.5114037980136459,2.425945378132425,-0.023741075342236906,C,889,Incorrect
2,relearn,1,14,C,60.89248456410765,38.6541866000951,3.0446242282053824,0.6071785432667389,C,855,Correct
2,relearn,1,15,D,28.4467028388895,27.82647817757387,1.4223351419444752,0.43709729708971373,B,1298,Incorrect
2,relearn,1,16,D,75.45433863550176,17.274719964624573,3.7727169317750877,0.27135066666842744,C,917,Incorrect
2,relearn,1,17,A,10.390603825491201,41.06278183923215,0.51953019127456,0.6450126688104605,A,1002,Correct
2,relearn,1,18,D,52.66059724795424,8.423989810815208,2.633029862397712,0.13232372251786165,B,580,Incorrect
2,relearn,1,19,A,36.504471813902214,35.33133443367697,1.8252235906951109,0.5549833034918183,B,570,Incorrect
2,relearn,1,20,A,34.53583289130638,48.831605319394924,1.7267916445653189,0.7670450626720366,B,278,Incorrect
2,relearn,1,21,C,60.59727418123865,45.19653212598201,3.0298637090619325,0.7099454664736008,B,360,Incorrect
2,relearn,1,22,C,73.16404745876304,54.13748171888871,3.6582023729381516,0.8503895742595625,B,252,Incorrect
2,relearn,1,23,C,82.8834514275752,24.391885809551468,4.14417257137876,0.38314684633244006,B,921,Incorrect
2,relearn,1,24,D,50.08951845106673,11.549808376596275,2.5044759225533366,0.18142396573142355,B,446,Incorrect
2,relearn,1,25,A,26.19451824115517,41.412754798917426,1.3097259120577585,0.6505100312059722,B,266,Incorrect
2,relearn,1,26,C,94.36545514168903,43.72760515176494,4.718272757084452,0.6868716155192996,B,574,Incorrect
2,relearn,1,27,C,60.89598660495393,43.627474620348536,3.0447993302476966,0.6852987688098106,A,591,Incorrect
2,relearn,1,28,B,26.375611929930585,85.60749008906404,1.3187805964965293,1.344719309780323,C,311,Incorrect
2,relearn,1,29,D,38.88626786924712,36.74416017110718,1.944313393462356,0.5771759182793849,C,830,Incorrect
2,relearn,1,30,C,95.46520328099878,61.90349710448123,4.773260164049939,0.9723778586747766,D,379,Incorrect
2,relearn,1,31,B,36.10216769688085,82.95649012648721,1.8051083848440426,1.303077499744832,D,317,Incorrect
2,relearn,1,32,D,35.808126570341074,30.482597488079666,1.7904063285170537,0.4788195216544288,C,253,Incorrect
2,relearn,1,33,A,7.450509094711986,66.70230095617934,0.37252545473559934,1.0477572933073422,B,313,Incorrect
2,relearn,1,34,C,82.41779035467874,49.27919374041505,4.1208895177339375,0.7740757651485801,B,571,Incorrect
2,relearn,1,35,B,53.168836414825044,72.01226663877098,2.658441820741252,1.1311660392035614,A,379,Incorrect
2,relearn,1,36,A,39.293985389966345,30.760810760158968,1.9646992694983172,0.48318968551290636,A,287,Correct
2,relearn,1,37,D,37.304065019845524,21.37513105630603,1.8652032509922762,0.3357597734800503,D,427,Correct
2,relearn,1,38,D,34.405317371617066,45.25422603161202,1.7202658685808532,0.7108517202240214,D,451,Correct
2,relearn,1,39,D,32.802637962488184,29.714030068816168,1.640131898124409,0.4667468928636954,A,276,Incorrect
2,relearn,1,40,A,29.653118617211277,76.12322245281268,1.4826559308605638,1.1957407821266894,D,280,Incorrect
2,relearn,1,41,D,72.39191882430595,36.799536679469256,3.619595941215297,0.5780457704386437,D,345,Correct
2,relearn,1,42,C,94.90799273797317,63.32916701825554,4.745399636898659,0.9947722293125631,D,681,Incorrect
2,relearn,1,43,D,55.66164199208937,4.280424586573005,2.7830820996044685,0.06723675217711442,C,320,Incorrect
2,relearn,1,44,C,68.68044752740678,25.58930040059592,3.434022376370339,0.4019557907450725,D,1836,Incorrect
2,relearn,1,45,C,98.03245370200605,59.801006120256226,4.901622685100302,0.939352007523376,C,1515,Correct
2,relearn,1,46,B,36.06229032569838,57.148508105315145,1.8031145162849187,0.8976866661363742,C,459,Incorrect
2,relearn,1,47,B,71.83914224342999,78.40881866016971,3.5919571121714995,1.2316428433972173,C,328,Incorrect
2,relearn,1,48,D,59.19820988153111,28.24692638736006,2.9599104940765555,0.44370168212511013,C,279,Incorrect
2,relearn,1,49,B,25.841272033326092,66.0030139033214,1.2920636016663047,1.0367729179672975,A,625,Incorrect
2,relearn,1,50,C,58.994961696899956,48.48841782678888,2.9497480848449977,0.7616542861441614,D,530,Incorrect
2,relearn,1,51,A,27.427677876871464,69.00150113637547,1.3713838938435732,1.0838730452835246,C,332,Incorrect
2,relearn,1,52,A,38.35918479395402,62.1130271364103,1.9179592396977012,0.9756691487198504,C,665,Incorrect
2,relearn,1,53,D,59.20405692526967,24.180087536715078,2.9602028462634835,0.37981992684251104,D,468,Correct
2,relearn,1,54,C,61.36725411248175,48.34836290035928,3.0683627056240876,0.7594543085043101,D,318,Incorrect
2,relearn,1,55,A,22.09335592078248,57.97254912950025,1.1046677960391238,0.9106306722755567,C,653,Incorrect
2,relearn,1,56,C,59.1655176092845,40.73452329253443,2.9582758804642246,0.6398563956165424,C,521,Correct
2,relearn,1,57,D,40.760761807150374,23.210074113773317,2.0380380903575186,0.36458299162552443,D,999,Correct
2,relearn,1,58,C,76.27267253781655,50.97451856144977,3.8136336268908275,0.8007058651646359,C,507,Correct
2,relearn,1,59,C,71.31192225183769,28.00463399542364,3.5655961125918845,0.4398957621324694,D,993,Incorrect
2,relearn,1,60,B,61.89760458982397,98.94888577832639,3.0948802294911983,1.5542854632104286,B,787,Correct
2,relearn,1,61,D,58.92896557992398,46.769607881392304,2.946448278996199,0.7346552826572867,C,818,Incorrect
2,relearn,1,62,B,41.72913203224199,87.24468290323989,2.0864566016120993,1.370436274367947,C,646,Incorrect
2,relearn,1,63,B,75.47395000096917,70.14035395554518,3.7736975000484585,1.1017621035346425,C,864,Incorrect
2,relearn,1,64,A,30.033918422194294,52.297035118857046,1.5016959211097147,0.8214799066696435,C,596,Incorrect
2,relearn,1,65,C,100.42003165425322,48.575479651827266,5.02100158271266,0.7630218500939051,D,768,Incorrect
2,relearn,1,66,D,27.484318352180434,21.68341663561609,1.3742159176090218,0.3406023120358911,D,696,Correct
2,relearn,1,67,B,67.37790916339958,73.64993419277185,3.368895458169979,1.1568904609869188,C,720,Incorrect
2,relearn,1,68,C,53.973260940218616,51.844004479698555,2.698663047010931,0.8143637180304865,C,914,Correct
2,relearn,1,69,C,71.50087348989503,26.649001910051332,3.575043674494751,0.4186015431305881,D,1057,Incorrect
2,relearn,1,70,C,88.82433748415669,47.32533194588027,4.441216874207834,0.7433845758493791,D,594,Incorrect
2,relearn,1,71,A,23.13986964809422,23.392123054482724,1.156993482404711,0.3674426096991567,C,2476,Incorrect
2,relearn,1,72,B,46.8627712680208,67.342719459208,2.3431385634010398,1.0578169636290313,B,586,Correct
2,relearn,1,73,B,26.0260459164558,65.69498958641806,1.3013022958227902,1.0319344833117448,B,561,Correct
2,relearn,1,74,A,44.024034466311086,58.841761122352054,2.2012017233155543,0.9242842223313334,B,413,Incorrect
2,relearn,1,75,A,24.25655358532335,63.348162926866024,1.2128276792661674,0.995070616347258,B,736,Incorrect
2,relearn,1,76,D,56.04411811379108,3.901939314172928,2.802205905689554,0.061291519420794326,C,905,Incorrect
2,relearn,1,77,C,97.8444130304963,37.572923503718926,4.892220651524815,0.5901941022658731,D,861,Incorrect
2,relearn,1,78,A,24.537739078309997,58.457642295548894,1.2268869539154998,0.918250497909382,D,571,Incorrect
2,relearn,1,79,A,31.386611056101465,60.81898388552311,1.5693305528050732,0.9553423648677772,C,426,Incorrect
2,relearn,1,80,B,51.42949114860455,68.6707519041844,2.5714745574302276,1.0786776484933651,B,506,Correct
2,relearn,1,81,C,60.0016274273633,44.66129714418179,3.0000813713681653,0.7015380150397615,B,807,Incorrect
2,relearn,1,82,B,46.17025787124999,72.82166564991938,2.3085128935624994,1.1438800491397947,A,523,Incorrect
2,relearn,1,83,B,52.4204154591875,62.29878459663733,2.6210207729593753,0.9785870200818442,B,371,Correct
2,relearn,1,84,C,77.85665335882923,62.008653931899744,3.892832667941462,0.9740296582572404,B,950,Incorrect
2,relearn,1,85,D,33.103601779113276,16.667352111400653,1.6551800889556636,0.26181015473985314,C,437,Incorrect
2,relearn,1,86,B,65.7178749205276,65.02572527577205,3.2858937460263804,1.021421704103568,D,322,Incorrect
2,relearn,1,87,B,68.4050709230388,63.53449169325184,3.4202535461519403,0.9979974617654086,C,455,Incorrect
2,relearn,1,88,C,79.62647410631651,54.1296345666644,3.981323705315825,0.850266311480665,C,477,Correct
2,relearn,1,89,B,74.55102969048191,83.97740695645632,3.7275514845240956,1.319114023809618,B,749,Correct
2,relearn,1,90,A,24.25670140591543,70.32217131145259,1.2128350702957715,1.1046180838827118,A,731,Correct
2,relearn,1,91,A,0.44214172350493186,42.886313540168956,0.022107086175246593,0.6736566377867164,A,1071,Correct
2,relearn,1,92,B,64.15784402441739,63.86347401314377,3.2078922012208695,1.0031651039620757,B,411,Correct
2,relearn,1,93,A,2.018260058898637,59.89807229154839,0.10091300294493184,0.9408767193765938,A,897,Correct
2,relearn,1,94,D,45.68637764628937,5.217312850267181,2.2843188823144684,0.081953358609395,C,749,Incorrect
2,relearn,1,95,A,47.20026834683425,40.776741594991336,2.3600134173417127,0.6405195591607706,D,706,Incorrect
2,relearn,1,96,C,60.683880501642896,52.86275402544559,3.034194025082145,0.8303661984743206,C,373,Correct
2,relearn,1,97,B,54.216610088332246,49.696742817120146,2.710830504416612,0.78063461070803,D,1051,Incorrect
2,relearn,1,98,A,30.403439141413642,53.243874370909026,1.520171957070682,0.8363528228615283,C,539,Incorrect
2,relearn,1,99,D,56.32127428717798,39.280066592897484,2.816063714358899,0.6170098432038229,C,711,Incorrect
2,relearn,1,100,B,48.71510984348591,89.89659052583404,2.435755492174296,1.4120923418936502,B,908,Correct
2,relearn,1,101,D,67.05696365901284,10.93871520981014,3.3528481829506416,0.17182493671425236,D,943,Correct
2,relearn,1,102,A,45.50904014969287,45.80127059612017,2.2754520074846436,0.7194446761492466,D,810,Incorrect
2,relearn,1,103,B,26.365214550618468,87.340326145331,1.3182607275309235,1.3719386349015419,B,810,Correct
2,relearn,1,104,A,33.632815557134656,48.92844619222189,1.6816407778567326,0.7685662355452388,C,730,Incorrect
2,relearn,1,105,A,13.147248913869841,31.003628365933896,0.6573624456934921,0.48700385554523024,A,985,Correct
2,relearn,1,106,B,33.8875467287818,61.07330014932546,1.69437733643909,0.9593371553980266,B,613,Correct
2,relearn,1,107,A,0.21021263437813786,50.68938506360926,0.010510631718906894,0.7962269986540952,A,804,Correct
2,relearn,1,108,C,97.41827994159824,50.16607925325942,4.870913997079913,0.7880069302072157,D,695,Incorrect
2,relearn,1,109,C,67.27701731108496,65.78506250881932,3.3638508655542476,1.0333493454682605,C,990,Correct
2,relearn,1,110,A,29.540223774202943,29.846190121677132,1.4770111887101474,0.4688228581195257,C,818,Incorrect
2,relearn,1,111,A,2.6222968061368306,63.32760717287876,0.13111484030684153,0.9947477273186809,A,680,Correct
2,relearn,1,112,B,63.61842804826922,84.84921223029194,3.180921402413461,1.332808309027832,B,673,Correct
2,relearn,1,113,C,54.75890048404906,48.963748785773376,2.737945024202453,0.769120767388009,C,738,Correct
2,relearn,1,114,A,43.99689642287727,36.55570584084565,2.1998448211438637,0.5742156845819509,C,603,Incorrect
2,relearn,1,115,C,65.3861024262632,39.9697730745207,3.269305121313159,0.6278437272828268,B,597,Incorrect
2,relearn,1,116,D,35.06546242320654,20.48160991147748,1.7532731211603272,0.32172437615794774,B,470,Incorrect
2,relearn,1,117,A,4.1204289422333495,38.399218655765566,0.20602144711166748,0.6031735161627061,A,634,Correct
2,relearn,1,118,C,61.592018757574756,69.9645085598096,3.079600937878738,1.0989999305175902,B,456,Incorrect
2,relearn,1,119,C,98.68974165914418,52.962927546998856,4.934487082957208,0.8319397204713005,B,558,Incorrect
2,relearn,1,120,C,80.5578130809406,67.0359054061478,4.02789065404703,1.0529975397534712,D,459,Incorrect
2,relearn,1,121,B,64.24567012728582,97.524486325038,3.212283506364291,1.5319110489192882,B,956,Correct
2,relearn,1,122,C,64.23404559924111,34.443728660387585,3.2117022799620556,0.5410408246085692,C,1030,Correct
2,relearn,1,123,A,33.693677697389816,60.82851658655689,1.684683884869491,0.9554921041854599,B,1119,Incorrect
2,relearn,1,124,A,36.82068926665329,37.5687607657369,1.8410344633326645,0.5901287141305575,B,1069,Incorrect
2,relearn,1,125,C,72.12007382242588,39.968322836748925,3.606003691121294,0.627820947001178,D,897,Incorrect
2,relearn,1,126,B,54.49645588421876,55.36256226628234,2.7248227942109384,0.8696330944983004,D,385,Incorrect
2,relearn,1,127,D,41.340759273689585,0.4873170645992033,2.067037963684479,0.007654758550568999,D,574,Correct
2,relearn,1,128,A,39.30139965132591,45.209433275565246,1.9650699825662954,0.7101481172573686,C,786,Incorrect
2,relearn,1,129,A,40.01940698661572,35.936845131462036,2.0009703493307858,0.5644946432909763,C,509,Incorrect
2,relearn,1,130,B,33.5541925118942,82.95957487583013,1.67770962559471,1.3031259548742016,C,509,Incorrect
2,relearn,1,131,A,45.89348384835148,52.58387323434242,2.294674192417574,0.8259855492515353,C,576,Incorrect
2,relearn,1,132,A,23.270384533484467,30.436000464652494,1.1635192266742234,0.47808757732203905,D,703,Incorrect
2,relearn,1,133,A,18.115076588997958,63.260683401743464,0.905753829449898,0.9936964911799352,C,345,Incorrect
2,relearn,1,134,B,46.19197453176169,78.94868747178435,2.309598726588084,1.2401230828595713,B,499,Correct
2,relearn,1,135,A,27.610989270548714,32.23264463129453,1.3805494635274358,0.506309197897227,B,659,Incorrect
2,relearn,1,136,A,9.971858877974558,32.24401662177958,0.4985929438987279,0.5064878287060496,A,952,Correct
2,relearn,1,137,D,33.288585326949075,27.399923972108358,1.6644292663474538,0.4303969992984724,B,400,Incorrect
2,relearn,1,138,D,49.88139273005913,26.400406842100395,2.4940696365029567,0.4146966209346215,B,439,Incorrect
2,relearn,1,139,A,7.587057037847131,56.15122561841171,0.37935285189235657,0.8820213894643262,B,494,Incorrect
2,relearn,1,140,D,66.2919665594302,32.63479955580945,3.3145983279715097,0.5126262326795321,B,491,Incorrect
2,relearn,1,141,D,72.34055586660439,11.902564838061192,3.6170277933302195,0.1869650512706461,C,343,Incorrect
2,relearn,1,142,D,56.32609448777472,27.660016918809085,2.816304724388736,0.43448252975150004,D,630,Correct
2,relearn,1,143,D,40.616652837145935,17.399759638587277,2.0308326418572964,0.27331478527406994,D,518,Correct
2,relearn,1,144,C,59.91707538674556,62.17205699902184,2.9958537693372778,0.9765963876334645,C,611,Correct
2,relearn,1,145,A,26.961854097910482,34.647549189675274,1.348092704895524,0.5442424299958741,D,621,Incorrect
2,relearn,1,146,D,70.4326070098108,18.25567142747097,3.5216303504905397,0.28675941621445944,D,656,Correct
2,relearn,1,147,D,53.815408245729586,42.80439000945723,2.6907704122864793,0.6723697859755159,C,1093,Incorrect
2,relearn,1,148,A,30.89812002288142,72.14506818261404,1.544906001144071,1.1332520809761748,B,928,Incorrect
2,relearn,1,149,D,63.93970280398359,46.81318766421944,3.19698514019918,0.7353398322851606,D,418,Correct
2,relearn,1,150,A,8.092955638047737,65.81228008217623,0.40464778190238687,1.0337768781107934,A,673,Correct
2,relearn,1,151,D,48.45779815120045,16.82177800948589,2.4228899075600223,0.26423587107459606,D,1115,Correct
2,relearn,1,152,A,43.84442393443288,65.00761538461545,2.1922211967216443,1.0211372345984935,C,802,Incorrect
2,relearn,1,153,D,41.90886363334974,44.58287413110968,2.0954431816674868,0.700306149231063,B,846,Incorrect
2,relearn,1,154,D,43.63844467671041,18.088064295830254,2.1819222338355204,0.2841266495472008,B,990,Incorrect
2,relearn,1,155,B,69.35095430654437,78.36811243700333,3.4675477153272185,1.2310034315389426,B,961,Correct
2,relearn,1,156,D,55.23066479816188,32.10416906858374,2.7615332399080943,0.5042911084773368,C,570,Incorrect
2,relearn,1,157,D,51.66685731602277,27.249450490122243,2.5833428658011384,0.42803336737063413,C,460,Incorrect
2,relearn,1,158,D,36.989206871262866,18.617852992709977,1.8494603435631434,0.292448550937562,C,509,Incorrect
2,relearn,1,159,A,24.564433731462124,64.4021029797636,1.2282216865731062,1.0116258679847934,B,1322,Incorrect
2,relearn,1,160,C,68.63583244970354,58.75131729364732,3.431791622485177,0.922863533992227,C,564,Correct
2,relearn,1,161,A,11.317039873346161,57.09861407113852,0.5658519936673081,0.8969029324802379,A,568,Correct
2,relearn,1,162,C,84.5432663928768,35.985103772206706,4.22716331964384,0.5652526882471547,D,693,Incorrect
2,relearn,1,163,C,78.13957340574129,31.27164963002445,3.9069786702870646,0.4912139237165939,D,428,Incorrect
2,relearn,1,164,D,38.93348720317365,7.824390941416102,1.9466743601586824,0.12290524550183675,C,595,Incorrect
2,relearn,1,165,A,25.577088099030274,76.13724277755816,1.2788544049515138,1.1959610128727962,A,991,Correct
2,relearn,1,166,C,100.6176144179616,52.28302970980207,5.03088072089808,0.8212599102186554,D,678,Incorrect
2,relearn,1,167,A,18.659802281828483,29.339657157791063,0.9329901140914242,0.460866256928798,A,728,Correct
2,relearn,1,168,D,52.690694369541795,33.115936135565185,2.6345347184770898,0.5201839084012018,B,653,Incorrect
2,relearn,1,169,D,54.92008922718284,32.55738130433615,2.7460044613591426,0.5114101496291206,B,490,Incorrect
2,relearn,1,170,A,14.499134404541977,71.97088156196943,0.7249567202270988,1.1305159639373215,B,711,Incorrect
2,relearn,1,171,A,28.988557882092564,26.411198088809662,1.4494278941046281,0.41486612944154616,B,935,Incorrect
2,relearn,1,172,C,60.84864930985716,69.74641315783454,3.042432465492858,1.0955740959544573,B,813,Incorrect
2,relearn,1,173,A,3.3868234135163107,50.790283988403836,0.16934117067581553,0.7978119152585439,A,621,Correct
2,relearn,1,174,A,37.05935775929723,58.184496895409474,1.8529678879648614,0.9139599399971827,B,717,Incorrect
2,relearn,1,175,A,39.45530487023487,45.478816458453615,1.9727652435117435,0.7143795783991821,C,961,Incorrect
2,relearn,1,176,A,5.569321313389533,48.16944202478634,0.2784660656694767,0.7566438259629411,A,567,Correct
2,relearn,1,177,B,55.4005126880753,99.21740586659844,2.770025634403765,1.5585033668937127,D,1092,Incorrect
2,relearn,1,178,D,39.8761866157768,22.56332847653044,1.9938093307888403,0.354423934912007,C,584,Incorrect
2,relearn,1,179,B,32.472564436063124,94.96285232353895,1.6236282218031561,1.491672996117812,C,550,Incorrect
2,relearn,1,180,D,37.5184414802914,31.92439421613957,1.8759220740145701,0.5014672116986428,D,1084,Correct
2,relearn,1,181,C,72.10240770893623,54.533167204380085,3.6051203854468112,0.8566049873313215,D,390,Incorrect
2,relearn,1,182,B,49.197991153464585,74.62789820898679,2.4598995576732294,1.172252283830999,C,715,Incorrect
2,relearn,1,183,D,52.33772149612585,45.558316294654354,2.6168860748062923,0.7156283589060315,C,853,Incorrect
2,relearn,1,184,D,34.27855602916766,36.42541566327482,1.713927801458383,0.5721690912584938,C,334,Incorrect
2,relearn,1,185,A,5.863276658509108,39.65170177679735,0.2931638329254554,0.6228474750215995,B,598,Incorrect
2,relearn,1,186,A,20.83327604876746,60.650995363218485,1.0416638024383729,0.952703607329979,A,757,Correct
2,relearn,1,187,D,27.502947692609755,36.407866240392735,1.3751473846304878,0.5718934255684883,A,722,Incorrect
2,relearn,1,188,C,79.01272611618437,67.54948689287436,3.950636305809218,1.0610648588820704,C,832,Correct
2,relearn,1,189,A,32.04874020235683,50.30358264872124,1.6024370101178418,0.7901668284923482,C,573,Incorrect
2,relearn,1,190,D,47.55538192148964,32.95252637228067,2.377769096074482,0.5176170738419045,C,383,Incorrect
2,relearn,1,191,D,64.17967008974766,8.922482853077874,3.2089835044873833,0.14015403291505174,D,523,Correct
2,relearn,1,192,B,48.39449544451659,100.98818726498169,2.4197247722258295,1.586318736055084,B,1275,Correct
2,relearn,1,193,C,74.33036528120657,27.11458157681625,3.7165182640603285,0.4259148514344354,D,629,Incorrect
2,relearn,1,194,C,64.21448965258088,26.658554596420135,3.210724482629044,0.41875159637717957,D,574,Incorrect
2,relearn,1,195,A,36.062654848623794,44.84783225882869,1.8031327424311896,0.7044681017688177,B,509,Incorrect
2,relearn,1,196,A,1.5072395123041353,38.61969126716234,0.07536197561520677,0.6066366918441155,A,617,Correct
2,relearn,1,197,B,70.92093658749027,88.33038920495315,3.5460468293745135,1.38749050907504,C,563,Incorrect
2,relearn,1,198,A,28.753442471288427,58.65751045790043,1.4376721235644214,0.9213900196620324,C,626,Incorrect
2,relearn,1,199,C,82.93869188860835,39.33411777957481,4.146934594430417,0.6178588772587394,C,490,Correct
2,relearn,1,200,D,67.71779753696089,17.919843158364486,3.3858898768480445,0.281484238098996,C,883,Incorrect
2,relearn,1,201,A,37.27425929094442,37.31326573788567,1.8637129645472212,0.5861154076179267,C,1025,Incorrect
2,relearn,1,202,B,71.30514560209895,63.37250946274783,3.565257280104947,0.9954530508385911,C,646,Incorrect
2,relearn,1,203,B,27.170805114521688,70.12474511650115,1.3585402557260844,1.1015169204642836,B,608,Correct
2,relearn,1,204,A,33.49209324400749,49.3672863265281,1.6746046622003745,0.7754595202554226,B,501,Incorrect
2,relearn,1,205,C,81.01207024381902,61.915298458074474,4.050603512190952,0.9725632339035312,D,2114,Incorrect
2,relearn,1,206,B,46.55529258647138,99.0262217134746,2.327764629323569,1.5555002532390294,D,1018,Incorrect
2,relearn,1,207,C,76.29184858732543,69.87539259073142,3.8145924293662716,1.0976001001487223,D,622,Incorrect
2,relearn,1,208,A,10.254961325907185,54.3632990932827,0.5127480662953593,0.8539367052818079,A,641,Correct
2,relearn,1,209,A,48.19461888110722,42.696882648623074,2.4097309440553607,0.6706810643004988,B,838,Incorrect
2,relearn,1,210,B,61.87702405940137,66.44230480312049,3.093851202970068,1.043673283285286,B,633,Correct
2,relearn,1,211,B,47.57732925171375,74.04755032176138,2.3788664625856875,1.1631362005358303,B,1486,Correct
2,relearn,1,212,B,57.221881445251974,98.43662049246402,2.8610940722625986,1.5462388189166572,C,945,Incorrect
2,relearn,1,213,D,60.90227565924609,45.33589278584623,3.045113782962304,0.712134538599745,C,845,Incorrect
2,relearn,1,214,A,3.559704664944398,63.21848223606182,0.1779852332472199,0.9930335968195432,A,661,Correct
2,relearn,1,215,B,40.1973713895579,69.3644329801878,2.009868569477895,1.0895739653548977,D,962,Incorrect
2,relearn,1,216,C,90.29515745662115,59.7516383962146,4.514757872831058,0.9385765411275079,D,688,Incorrect
2,relearn,1,217,C,98.52850487638906,49.785190186834654,4.926425243819454,0.7820239387426521,D,502,Incorrect
2,relearn,1,218,B,51.49679055250003,73.50149408538442,2.574839527625002,1.1545587692325867,D,567,Incorrect
2,relearn,1,219,C,61.591648225725834,66.03448866294755,3.079582411286292,1.0372673223353726,D,425,Incorrect
2,relearn,1,220,A,38.22598248154081,56.0853226037033,1.9112991240770407,0.8809861873300392,C,692,Incorrect
2,relearn,1,221,B,51.054295490295615,63.211926814426036,2.5527147745147807,0.9929306244972824,C,332,Incorrect
2,relearn,1,222,B,44.69840395503814,70.59950418036067,2.234920197751907,1.1089744184005148,C,426,Incorrect
2,relearn,1,223,B,46.481397542045535,98.23287720596846,2.3240698771022767,1.5430384268562938,B,857,Correct
2,relearn,1,224,C,66.95292348660851,49.58726766785115,3.3476461743304253,0.7789149790845591,C,833,Correct
2,relearn,1,225,D,68.51613121926974,36.11189458668903,3.4258065609634865,0.5672443137037564,C,602,Incorrect
2,relearn,1,226,A,28.63936031697953,35.895439627777904,1.4319680158489765,0.563844247160015,C,694,Incorrect
2,relearn,1,227,B,26.57883773587766,76.86286155756585,1.328941886793883,1.2073590060156911,B,549,Correct
2,relearn,1,228,D,48.376721414574966,22.50904401852356,2.4188360707287484,0.3535712366396145,B,1064,Incorrect
2,relearn,1,229,B,64.67353646038222,77.37053072319378,3.2336768230191115,1.2153334546216448,C,525,Incorrect
2,relearn,1,230,A,43.574085502385,51.08861764753755,2.1787042751192502,0.8024981294178092,C,464,Incorrect
2,relearn,1,231,D,67.63011812942571,41.817691807768554,3.3815059064712853,0.6568707668668389,D,585,Correct
2,relearn,1,232,A,29.613637124782265,73.91707152258923,1.480681856239113,1.161086644351188,B,1315,Incorrect
2,relearn,1,233,A,37.41790973878297,64.04742676349288,1.8708954869391483,1.0060546270075976,B,555,Incorrect
2,relearn,1,234,A,33.26934049263329,57.99269737460052,1.6634670246316645,0.9109471601695053,C,1381,Incorrect
2,relearn,1,235,B,44.155901206198294,100.43484941259376,2.2077950603099143,1.5776269253950084,B,1390,Correct
2,relearn,1,236,B,30.663273268935633,58.59216829275752,1.5331636634467816,0.9203636273321192,B,445,Correct
2,relearn,1,237,C,68.34168303322262,32.13476123782698,3.417084151661131,0.5047716491480965,C,848,Correct
2,relearn,1,238,A,27.659195117361524,67.41872019089986,1.3829597558680762,1.0590107803307842,C,555,Incorrect
2,relearn,1,239,B,36.05828384126747,82.92935083982626,1.8029141920633733,1.3026511968268435,C,619,Incorrect
2,relearn,1,240,C,76.32486847219673,69.85495314136338,3.816243423609836,1.0972790380288322,C,704,Correct
2,relearn,1,241,C,81.51861383942146,74.96589467684507,4.075930691971073,1.177561519932813,C,607,Correct
2,relearn,1,242,A,32.92699266596414,64.898153678692,1.6463496332982073,1.019417814142601,B,717,Incorrect
2,relearn,1,243,A,2.47318126188803,54.075559025181974,0.12365906309440149,0.8494168948613646,A,656,Correct
2,relearn,1,244,D,52.12905972892896,37.03677641234616,2.606452986446448,0.581772323448372,B,546,Incorrect
2,relearn,1,245,D,58.09708944549402,16.604336156674606,2.904854472274701,0.2608203024377216,C,818,Incorrect
2,relearn,1,246,B,54.77103406970103,83.33167564019372,2.7385517034850517,1.3089709000128005,B,1077,Correct
2,relearn,1,247,A,30.484273175113486,28.496255051744733,1.5242136587556743,0.4476181276269114,B,933,Incorrect
2,relearn,1,248,C,98.49396016337121,61.978739599408584,4.92469800816856,0.973559765021284,D,869,Incorrect
2,relearn,1,249,A,43.26782613582017,60.48049283109408,2.1633913067910084,0.9500253598182766,C,510,Incorrect
2,relearn,1,250,A,9.389618385978416,68.61939040251264,0.4694809192989208,1.0778708639117183,C,425,Incorrect
2,relearn,1,251,C,69.72685193309889,74.319395956216,3.486342596654944,1.1674063417763958,C,495,Correct
2,relearn,1,252,B,65.8349130116617,95.37246526195008,3.291745650583085,1.4981071811084505,B,911,Correct
2,relearn,1,253,C,82.61356293985936,56.90957421975661,4.1306781469929685,0.893933501438552,C,663,Correct
2,relearn,1,254,B,67.76699024306224,56.61950766556298,3.388349512153112,0.8893771466600181,C,434,Incorrect
2,relearn,1,255,B,53.81130327648616,97.81348117108014,2.690565163824308,1.5364505693455446,B,591,Correct
2,relearn,1,256,C,64.71764521024308,44.44520119197702,3.2358822605121538,0.6981435877601765,C,564,Correct
2,relearn,1,257,B,54.480331144439894,75.1384564072829,2.7240165572219945,1.1802721132559844,C,1087,Incorrect
2,relearn,1,258,A,17.964689011113467,32.55187495775465,0.8982344505556733,0.5113236561392778,A,763,Correct
2,relearn,1,259,A,16.108673699993943,44.30301605712256,0.8054336849996971,0.6959101488846343,A,523,Correct
2,relearn,1,260,D,74.90352974836775,30.689771996983676,3.7451764874183873,0.4820738112303483,B,1097,Incorrect
2,relearn,1,261,D,58.34109910304042,23.787316882069764,2.917054955152021,0.37365029982661413,B,1040,Incorrect
2,relearn,1,262,A,11.087378319611556,69.06577266816252,0.5543689159805778,1.0848826201440105,A,542,Correct
2,relearn,1,263,C,68.24248979767816,44.781013825152,3.412124489883908,0.7034185202670025,D,931,Incorrect
2,relearn,1,264,B,60.91974007228888,55.61872097318902,3.045987003614444,0.8736568260571559,D,503,Incorrect
2,relearn,1,265,B,61.92496431990976,73.78186801365378,3.096248215995488,1.1589628725991323,C,671,Incorrect
2,relearn,1,266,A,45.09185543276763,38.831994667492275,2.2545927716383813,0.6099715458581588,B,772,Incorrect
2,relearn,1,267,B,26.657050660904154,81.593959803618,1.332852533045208,1.281674923481736,B,866,Correct
2,relearn,1,268,B,61.021105430563594,70.53713172513585,3.0510552715281793,1.1079946741649114,B,845,Correct
2,relearn,1,269,A,30.186750325496753,59.59094395135374,1.5093375162748375,0.9360523586902703,B,656,Incorrect
2,relearn,1,270,D,32.95628258522724,38.77693369834038,1.6478141292613622,0.6091066501772231,C,542,Incorrect
2,relearn,1,271,C,86.34006168623394,44.85147338650877,4.317003084311697,0.7045252964686705,D,912,Incorrect
2,relearn,1,272,A,33.11398830300278,61.57557890397131,1.6556994151501387,0.9672269316262747,C,607,Incorrect
2,relearn,1,273,B,30.00141459800097,64.33589184814768,1.5000707299000484,1.010585825961441,C,549,Incorrect
2,relearn,1,274,B,36.794295216546885,83.45262790438517,1.8397147608273443,1.310870813735895,B,640,Correct
2,relearn,1,275,A,11.208274326787977,65.8047196443983,0.5604137163393988,1.0336581190318883,A,678,Correct
2,relearn,1,276,B,41.21595556278725,88.87876536355382,2.0607977781393627,1.3961043816313583,B,848,Correct
2,relearn,1,277,A,31.68195945559984,60.73306181194776,1.5840979727799922,0.9539927040921496,C,903,Incorrect
2,relearn,1,278,A,9.818373336429229,68.24643562248349,0.49091866682146146,1.0720125039264146,A,598,Correct
2,relearn,1,279,A,37.12609825966101,53.26593939957175,1.8563049129830507,0.8366994195212687,C,1233,Incorrect
2,relearn,1,280,A,15.274332392096424,61.953238983642876,0.7637166196048212,0.9731592022855262,C,681,Incorrect
2,relearn,1,281,B,71.82397195374821,61.640391392085625,3.591198597687411,0.9682450038088786,D,1624,Incorrect
2,relearn,1,282,D,28.884860598579433,30.807444464810363,1.4442430299289717,0.4839222060326189,C,1052,Incorrect
2,relearn,1,283,C,50.77744705907187,45.33417348833964,2.5388723529535935,0.7121075319376649,C,907,Correct
2,relearn,1,284,C,58.25203608301014,42.66786462613311,2.9126018041505066,0.670225250269118,B,1209,Incorrect
2,relearn,1,285,C,65.7025859738632,58.903562121760004,3.2851292986931595,0.9252549901599562,C,542,Correct
2,relearn,1,286,D,72.44050057997754,35.66916334862013,3.622025028998877,0.5602899076785965,C,1218,Incorrect
2,relearn,1,287,C,69.0716003476622,51.13499011377048,3.4535800173831097,0.80322654641404,C,1845,Correct
2,relearn,1,288,D,42.56260829373394,27.748051793703652,2.128130414686697,0.4358653783326424,B,1237,Incorrect
2,relearn,1,289,C,68.24247521098005,72.86938973524117,3.4121237605490022,1.1446296973190258,B,1474,Incorrect
2,relearn,1,290,B,64.59168046149357,96.50062550421384,3.2295840230746786,1.5158282807542898,B,834,Correct
2,relearn,1,291,B,46.809612413913825,98.14743448620288,2.3404806206956916,1.5416962957527025,B,1350,Correct
2,relearn,1,292,B,32.02046086474992,75.34019683000956,1.601023043237496,1.1834410444058352,C,1329,Incorrect
2,relearn,1,293,B,35.98518372713392,63.54305941865741,1.799259186356696,0.9981320432813691,B,1829,Correct
2,relearn,1,294,C,95.96818034315112,43.874384175373066,4.798409017157556,0.6891772150306416,D,906,Incorrect
2,relearn,1,295,D,57.08675215358416,16.74703439096252,2.8543376076792075,0.26306180106031735,C,1189,Incorrect
2,relearn,1,296,C,50.64214782663197,51.30928709600879,2.5321073913315986,0.8059643970087538,B,1370,Incorrect
2,relearn,1,297,C,53.72312758730988,34.24961868798731,2.686156379365494,0.537991752292163,C,441,Correct
2,relearn,1,298,C,90.69810852982754,32.85682348307529,4.534905426491377,0.5161137763736297,C,1024,Correct
2,relearn,1,299,C,78.2441641801542,68.08610855891138,3.91220820900771,1.0694940923009655,C,1013,Correct
2,relearn,1,300,B,75.99909292398658,79.83481942362232,3.799954646199329,1.254042411009598,C,1120,Incorrect
2,relearn,1,301,D,64.44384274660487,12.170814601643501,3.222192137330244,0.19117870870363304,C,872,Correct
2,relearn,1,302,D,56.873064739701604,1.1789959776966157,2.84365323698508,0.018519625510718018,D,794,Incorrect
2,relearn,1,303,D,45.923520095692226,40.4616093157426,2.2961760047846114,0.6355694728937865,C,1117,Correct
2,relearn,1,304,D,55.01902899138913,5.6458457722097,2.7509514495694565,0.08868473800637494,C,627,Incorrect
2,relearn,1,305,B,59.816971180116546,60.596908552717835,2.9908485590058276,0.9518540136973541,C,625,Correct
2,relearn,1,306,D,33.354276450204026,32.65067921730119,1.6677138225102013,0.5128756698189518,B,2052,Incorrect
2,relearn,1,307,A,32.732596449069405,29.971962695811,1.6366298224534703,0.4707984890941359,D,757,Correct
2,relearn,1,308,D,51.98560072233998,47.262737543575206,2.5992800361169994,0.7424013452771918,D,500,Correct
2,relearn,1,309,D,69.1012270073558,30.724977042601846,3.4550613503677905,0.48262681079376507,D,569,Incorrect
2,relearn,1,310,D,41.39143691486064,36.2524419884536,2.069571845743032,0.5694520271280799,C,729,Incorrect
2,relearn,1,311,D,42.8882280016494,11.700878845442679,2.14441140008247,0.1837969751069347,D,703,Correct
2,relearn,1,312,D,45.45627159278093,47.23997924776024,2.2728135796390463,0.7420438588024894,C,938,Correct
2,relearn,1,313,A,27.77919095090563,65.99075826185582,1.3889595475452814,1.036580406801331,C,1155,Incorrect
2,relearn,1,314,C,60.30981464249069,50.96644642263068,3.0154907321245346,0.8005790683045717,C,1132,Incorrect
2,relearn,1,315,D,44.221904789624176,9.201779404937835,2.211095239481209,0.1445412128925328,D,1415,Incorrect
2,relearn,1,316,B,65.10224015621161,54.272658160269664,3.2551120078105806,0.8525129208354666,C,595,Correct
2,relearn,1,317,A,20.761330860186632,23.652552695817413,1.0380665430093317,0.3715334289391272,A,740,Correct
2,relearn,1,318,C,52.834187899089386,43.353603795051626,2.641709394954469,0.6809968159458838,B,711,Correct
2,relearn,1,319,A,19.928853276414475,31.340971069531854,0.9964426638207238,0.4923028223420575,A,878,Correct
2,relearn,1,320,B,41.949335691996914,99.43903703992035,2.097466784599846,1.5619847412232857,B,954,Correct
2,relearn,1,321,B,34.27911131886022,92.30296082593576,1.7139555659430108,1.4498915181767311,B,868,Correct
2,relearn,1,322,B,63.719972246349045,64.86510793800096,3.185998612317452,1.0188987328616639,C,820,Correct
2,relearn,1,323,D,37.40876739493954,1.3560811707596443,1.8704383697469769,0.021301273218649722,D,708,Incorrect
2,relearn,1,324,B,30.708706007759453,65.1563179531547,1.5354353003879726,1.0234730490829578,C,537,Incorrect
2,relearn,1,325,D,59.96228594547495,7.496172461346763,2.998114297273748,0.11774960167304555,D,553,Correct
2,relearn,1,326,B,64.77184999832434,63.22629790119851,3.238592499916217,0.993156365000425,C,679,Correct
2,relearn,1,327,B,59.739996381829464,78.3344690223411,2.9869998190914733,1.2304749620172202,C,609,Incorrect
2,relearn,1,328,B,70.47284486300576,69.54203522271173,3.523642243150288,1.092363734856769,C,420,Incorrect
2,relearn,1,329,C,81.47861427803262,67.89210500013264,4.073930713901631,1.066446691525818,C,1003,Correct
2,relearn,1,330,B,56.35477632244116,61.062936597756334,2.817738816122058,0.9591743651106531,D,1414,Incorrect
2,relearn,1,331,C,85.47677522668437,44.85893402417288,4.273838761334218,0.7046424878910537,D,615,Correct
2,relearn,1,332,C,69.78559274479245,35.933449815805744,3.4892796372396226,0.5644413097973643,C,884,Correct
2,relearn,1,333,A,22.955709603678592,29.36363876373015,1.1477854801839298,0.46124295911399554,B,487,Incorrect
2,relearn,1,334,C,65.11793564692567,57.725468052393175,3.2558967823462837,0.9067495317921535,C,842,Correct
2,relearn,1,335,B,63.141138937077976,69.57135828481913,3.1570569468538987,1.0928243404392557,C,1271,Incorrect
2,relearn,1,336,B,50.23946649990864,95.91603803979854,2.511973324995432,1.506645602336351,B,794,Correct
2,relearn,1,337,A,6.6136477070376145,59.49105454073825,0.3306823853518807,0.9344832994974649,A,429,Correct
2,relearn,1,338,C,72.10424916248493,52.690130271506646,3.605212458124247,0.8276546308882723,C,918,Incorrect
2,relearn,1,339,C,59.25257551791593,35.01908420662027,2.9626287758957965,0.550078488394803,C,1179,Incorrect
2,relearn,1,340,D,52.86038911745882,13.661698495041566,2.643019455872941,0.21459745813790662,C,680,Incorrect
2,relearn,1,341,D,49.221125251284136,23.222873484676764,2.461056262564207,0.3647840436735287,C,926,Incorrect
2,relearn,1,342,B,68.74962456577418,85.11769607240363,3.4374812282887093,1.33702564335776,B,1169,Correct
2,relearn,1,343,A,19.986074895645025,47.74819505189464,0.9993037447822514,0.7500268939860234,B,915,Incorrect
2,relearn,1,344,B,33.40292782303406,62.19603734230355,1.6701463911517032,0.9769730699848864,B,776,Correct
2,relearn,1,345,A,8.552880623134783,49.351550576258376,0.42764403115673916,0.7752123436681921,A,606,Incorrect
2,relearn,1,346,A,40.36315407627152,33.96952583726077,2.018157703813576,0.5335920640813355,C,766,Incorrect
2,relearn,1,347,A,42.04445975353765,66.54284563382636,2.1022229876768823,1.0452525749609427,C,874,Incorrect
2,relearn,1,348,B,38.828189025243816,75.30978048062168,1.9414094512621909,1.1829632655069053,B,1264,Incorrect
2,relearn,1,349,D,24.631533946818607,33.19358632173781,1.2315766973409303,0.5214036346733508,C,497,Incorrect
2,relearn,1,350,B,53.648520460794174,53.6696902195951,2.682426023039709,0.8430415225715996,C,908,Correct
2,relearn,1,351,A,34.697652246712025,39.25380411586893,1.7348826123356014,0.6165973131793331,C,621,Correct
2,relearn,1,352,C,50.934205030384305,42.55632678726703,2.5467102515192153,0.6684732179932231,C,700,Correct
2,relearn,1,353,D,41.15816427237643,9.870303833955546,2.0579082136188216,0.15504237006726956,D,754,Incorrect
2,relearn,1,354,D,67.21583948502342,21.653566202279812,3.360791974251171,0.34013342252551243,D,496,Incorrect
2,relearn,1,355,D,35.05582974743052,17.523214755996996,1.752791487371526,0.2752540137235821,D,827,Incorrect
2,relearn,1,356,D,60.29635122428455,26.02695257589695,3.0148175612142274,0.40883041503883905,D,738,Correct
2,relearn,1,357,D,48.82553135035981,24.015484316967985,2.4412765675179906,0.3772343455129375,C,999,Correct
2,relearn,1,358,B,30.310950638831113,69.04195753520565,1.5155475319415554,1.0845085329103026,B,902,Incorrect
2,relearn,1,359,C,90.632493833812,33.11950823166589,4.531624691690601,0.5202400187555412,C,587,Correct
2,relearn,1,360,B,39.43506127003131,67.16752239598634,1.9717530635015657,1.055064974595293,B,912,Correct
2,relearn,1,361,C,70.95316891240418,71.08697034798456,3.547658445620209,1.1166315190559188,B,1620,Correct
2,relearn,1,362,A,23.805817699685306,39.71496157086409,1.1902908849842653,0.6238411575431378,A,912,Incorrect
2,relearn,1,363,B,45.00538950824501,99.861952886381,2.2502694754122503,1.568627887804923,B,1010,Correct
2,relearn,1,364,B,36.52551098102347,73.40437813462032,1.8262755490511737,1.1530332754452521,B,722,Correct
2,relearn,1,365,A,19.955147052034327,25.74583966248805,0.9977573526017164,0.4044147037208659,A,1306,Correct
2,relearn,1,366,A,50.25116349737097,43.70751516709664,2.5125581748685484,0.6865560427780764,A,1077,Correct
2,relearn,1,367,B,41.07707820271,62.311875424966885,2.0538539101355,0.9787926503323916,B,788,Incorrect
2,relearn,1,368,D,66.83032084932702,9.28865548306745,3.341516042466351,0.14590585913665624,C,688,Correct
2,relearn,1,369,A,31.714112166210693,48.8954098954629,1.5857056083105345,0.7680473026092396,B,910,Incorrect
2,relearn,1,370,A,6.092399864590799,63.83537714114362,0.30461999322954,1.002723759328753,A,594,Incorrect
2,relearn,1,371,A,7.394735259003138,50.84635079024114,0.36973676295015695,0.7986926105223557,D,607,Correct
2,relearn,1,372,C,80.12177984661749,64.43799667468616,4.0060889923308745,1.0121896848261878,C,816,Incorrect
2,relearn,1,373,C,87.58792161265688,58.49653845987033,4.379396080632844,0.9188614774298071,D,712,Incorrect
2,relearn,1,374,D,40.263862508938644,39.68297253746988,2.013193125446932,0.6233386749816044,D,646,Incorrect
2,relearn,1,375,D,58.70335046801884,27.033326403128463,2.9351675234009416,0.4246384981508168,C,856,Correct
2,relearn,1,376,B,66.96670817240755,71.51032600036393,3.3483354086203776,1.1232815740927726,B,856,Correct
2,relearn,1,377,A,10.524185778203023,61.34249292596168,0.5262092889101511,0.9635656256454252,D,934,Incorrect
2,relearn,1,378,C,52.41741092640095,61.50839017785142,2.6208705463200475,0.966171533584363,D,1380,Incorrect
2,relearn,1,379,D,39.124547031546925,41.18225402543153,1.956227351577346,0.646889333522822,C,517,Incorrect
2,relearn,1,380,D,55.60165492575577,22.891589025783787,2.7800827462877886,0.35958023956199536,C,501,Incorrect
2,relearn,1,381,D,61.366884371418244,26.322776865822018,3.068344218570912,0.413477212118749,C,1049,Incorrect
2,relearn,1,382,B,75.69044349258395,82.57292852079706,3.7845221746291973,1.2970525281316558,B,1080,Correct
2,relearn,1,383,C,64.46883939771712,54.603519274810694,3.2234419698858563,0.8577100750694698,B,559,Incorrect
2,relearn,1,384,A,12.938800209954207,65.4519999409672,0.6469400104977103,1.0281176108865107,A,966,Correct
2,relearn,1,385,A,24.76116467657807,58.879068355227105,1.2380582338289035,0.9248702429749636,A,953,Correct
2,relearn,1,386,D,30.298980308295494,12.096113587620552,1.5149490154147747,0.190005307919282,D,527,Incorrect
2,relearn,1,387,D,54.30000099030761,3.454043600921146,2.71500004951538,0.05425599000916354,B,726,Incorrect
2,relearn,1,388,C,72.87766717309677,35.59140547930829,3.6438833586548385,0.5590684899236522,C,828,Correct
2,relearn,1,389,A,44.07926648249263,36.20861685027845,2.2039633241246315,0.568763623467412,C,637,Correct
2,relearn,1,390,B,63.60354563949196,67.65234211603745,3.180177281974598,1.0626805049494328,C,714,Incorrect
2,relearn,1,391,D,41.11213319663506,41.18594233772991,2.055606659831753,0.6469472693969256,B,617,Correct
2,relearn,1,392,A,23.148993605152118,42.57064950213538,1.1574496802576058,0.6686981986722724,B,920,Incorrect
2,relearn,1,393,A,21.29425166020254,71.37553252092425,1.0647125830101272,1.1211642430689748,B,508,Incorrect
2,relearn,1,394,B,56.40304361045053,92.32546088471736,2.8201521805225265,1.4502449482735993,A,402,Correct
2,relearn,1,395,A,6.265890261343721,34.42596638206798,0.31329451306718603,0.5407618153931698,D,1055,Correct
2,relearn,1,396,C,91.04154984860953,40.01033876176631,4.5520774924304765,0.6284809316080199,D,647,Correct
2,relearn,1,397,B,54.54433478375126,71.49872750485162,2.727216739187563,1.1230993853513016,C,528,Incorrect
2,relearn,1,398,C,69.4442381444554,37.75384995408372,3.47221190722277,0.5930360883024038,D,629,Correct
2,relearn,1,399,A,26.744973984602836,57.0629777932643,1.3372486992301418,0.8963431591363832,B,1338,Incorrect
2,relearn,1,400,C,68.66882573638789,69.18165819623825,3.433441286819394,1.086702945762311,B,658,Incorrect
2,relearn,1,401,A,20.104595723864414,67.55335396963054,1.0052297861932207,1.0611256027817109,B,691,Incorrect
2,relearn,1,402,C,71.48646859309996,46.84901056746727,3.574323429654998,0.7359025371335287,C,1921,Correct
2,relearn,1,403,D,52.449513594275274,49.71630595286745,2.622475679713764,0.7809419077257544,C,840,Incorrect
2,relearn,1,404,B,37.58933120511038,62.96273087359103,1.8794665602555194,0.9890162638121242,C,774,Incorrect
2,relearn,1,405,C,86.45597142845155,56.010150203352396,4.322798571422577,0.8798053820265637,C,773,Correct
2,relearn,1,406,B,39.271065144343936,80.37056190624241,1.9635532572171968,1.2624578342476742,B,1492,Correct
2,relearn,1,407,D,40.23372770323897,39.53656451053607,2.0116863851619486,0.6210389030723953,C,698,Correct
2,relearn,1,408,C,60.04958830670639,53.65056084653907,3.0024794153353196,0.8427410390822967,C,861,Correct
2,relearn,1,409,D,68.1661146506846,24.32820599457098,3.4083057325342305,0.3821465661378168,C,1059,Incorrect
2,relearn,1,410,B,36.952130592691944,82.08383170545925,1.8476065296345974,1.2893698133218585,B,1132,Correct
2,relearn,1,411,D,33.989339806412886,16.859210500370196,1.6994669903206443,0.2648238592664346,C,783,Incorrect
2,relearn,1,412,D,35.684456254314675,26.834947514031192,1.7842228127157338,0.4215223698477404,B,997,Correct
2,relearn,1,413,C,69.27756535449403,39.167299539621936,3.4638782677247013,0.6152385024731357,C,798,Incorrect
2,relearn,1,414,C,58.64226742277618,54.38987618607922,2.932113371138809,0.8543541772792247,B,1274,Correct
2,relearn,1,415,C,95.85628967147038,38.94144664076421,4.792814483573519,0.6116908134339188,D,830,Incorrect
2,relearn,1,416,C,77.35632345043332,36.654605477205315,3.8678161725216658,0.575769196437102,C,584,Incorrect
2,relearn,1,417,C,52.16441065875565,38.71882555818318,2.6082205329377826,0.608193889646065,B,1182,Incorrect
2,relearn,1,418,D,58.753661356615524,14.087312964705047,2.937683067830776,0.2212829945936881,C,1109,Incorrect
2,relearn,1,419,B,39.584005613193725,62.83056672100424,1.979200280659686,0.9869402341579513,C,420,Correct
2,relearn,1,420,A,9.07325528187063,54.41680137161191,0.45366276409353146,0.8547771171045547,A,666,Correct
2,relearn,1,421,C,75.25387882626201,45.47889038811412,3.7626939413131004,0.7143807396835739,C,940,Correct
2,relearn,1,422,C,84.99024396202255,36.09025790750811,4.249512198101127,0.5669044455419421,D,804,Correct
2,relearn,1,423,A,16.87603908229567,45.04470874790478,0.8438019541147835,0.7075606304275477,A,2226,Incorrect
2,relearn,1,424,D,65.08830010302829,10.925731933131408,3.2544150051514147,0.17162099588108518,D,607,Incorrect
2,relearn,1,425,B,58.43921489357663,91.27469606363498,2.9219607446788314,1.4337395730607843,C,666,Incorrect
2,relearn,1,426,C,70.83784868711892,37.92884658133505,3.541892434355946,0.5957849288952828,D,673,Correct
2,relearn,1,427,C,85.5026958404858,42.744885860392685,4.27513479202429,0.6714350969877194,C,519,Correct
2,relearn,1,428,D,53.486686601457095,0.9088038973402845,2.674334330072855,0.014275458237190054,A,1204,Incorrect
2,relearn,1,429,B,55.32978000890941,63.2276381330984,2.7664890004454707,0.993177417313879,C,768,Correct
2,relearn,1,430,B,33.19278634111757,63.322636583452706,1.6596393170558783,0.9946696494825564,C,689,Correct
2,relearn,1,431,A,23.51253263158161,71.13678060119607,1.1756266315790804,1.1174139366837321,A,2661,Correct
2,relearn,1,432,D,41.419352638066044,43.18883265675967,2.070967631903302,0.6784085969579757,B,861,Correct
2,relearn,1,433,C,93.40432960913003,37.60943680558486,4.670216480456502,0.5907676518703748,D,589,Incorrect
2,relearn,1,434,B,50.69469234730337,52.95731936360593,2.5347346173651686,0.8318516273325645,C,562,Correct
2,relearn,1,435,C,57.05623071455474,36.879588971028,2.852811535727737,0.5793032288939636,C,1258,Incorrect
2,relearn,1,436,B,38.49936422186562,97.92092074828933,1.9249682110932809,1.5381382262778704,B,657,Incorrect
2,relearn,1,437,C,59.71264886358296,69.92287712973194,2.9856324431791483,1.0983459855431381,C,648,Incorrect
2,relearn,1,438,A,24.803578634049906,37.59988729393346,1.2401789317024952,0.5906176484921278,A,904,Correct
2,relearn,1,439,D,29.437129290469944,38.72801052243992,1.471856464523497,0.6083381667272272,B,1047,Correct
2,relearn,1,440,A,18.356353396742705,36.745408841491276,0.9178176698371352,0.5771955323479121,A,931,Correct
2,relearn,1,441,C,57.405856923504494,34.1921265167538,2.8702928461752246,0.5370886673782326,C,1235,Correct
2,relearn,1,442,A,40.873678963528334,60.45228695563625,2.0436839481764166,0.9495823029626445,B,1090,Incorrect
2,relearn,1,443,B,38.46652775739612,84.04306861076209,1.9233263878698061,1.3201454346635657,B,743,Incorrect
2,relearn,1,444,D,72.43254002138018,27.49679069236998,3.621627001069009,0.4319185781822287,C,470,Incorrect
2,relearn,1,445,B,66.10970438034435,69.85093254281179,3.3054852190172177,1.0972158826144687,B,1043,Incorrect
2,relearn,1,446,D,46.395907108625465,14.843800670854906,2.3197953554312734,0.23316587569454508,C,606,Incorrect
2,relearn,1,447,A,37.62762709321867,32.06172338883253,1.8813813546609337,0.5036243732989217,C,489,Incorrect
2,relearn,1,448,B,53.27666752766612,84.16874773617022,2.663833376383306,1.3221195977490245,B,781,Incorrect
2,relearn,1,449,D,58.8653802470554,29.314415926589664,2.94326901235277,0.46046976859624855,D,351,Incorrect
2,relearn,1,450,D,26.576345792039668,26.741420562593397,1.3288172896019832,0.42005325192999227,C,458,Incorrect
2,relearn,1,451,B,72.4534163265763,64.6282338755954,3.622670816328815,1.0151779237902676,B,1759,Correct
2,relearn,1,452,D,49.973400749422616,23.079103811431164,2.498670037471131,0.36252571492714175,C,1112,Incorrect
2,relearn,1,453,D,43.09355108658215,10.75017979894356,2.1546775543291075,0.1688634294056524,C,1081,Correct
2,relearn,1,454,C,74.73497344665132,41.37291704445442,3.7367486723325665,0.6498842612221897,B,1370,Incorrect
2,relearn,1,455,D,49.12305794639279,34.29573577185728,2.45615289731964,0.5387161577516175,C,492,Correct
2,relearn,1,456,D,31.50779191893982,21.704992148184296,1.575389595946991,0.3409412193947996,C,564,Incorrect
2,relearn,1,457,D,76.22490713774089,20.106668851336337,3.8112453568870444,0.3158348157576048,C,591,Incorrect
2,relearn,1,458,D,35.59226556063997,24.85031234778051,1.7796132780319989,0.3903477935559948,C,978,Incorrect
2,relearn,1,459,A,7.679338881251287,32.491145582522776,0.3839669440625643,0.5103697213438501,A,905,Correct
2,relearn,1,460,C,71.7675049798977,75.1175392128244,3.588375248994885,1.1799435467337618,B,1047,Incorrect
2,relearn,1,461,B,24.06521109706791,76.19691956977528,1.2032605548533954,1.196898413732892,B,761,Correct
2,relearn,1,462,D,62.45964694008139,4.836389117693713,3.12298234700407,0.07596982261024095,C,731,Incorrect
2,relearn,1,463,B,65.4517891795624,60.49353269450042,3.27258945897812,0.9502301895136824,C,729,Correct
2,relearn,1,464,B,49.349311337103856,58.30303626754391,2.467465566855193,0.9158219521004761,B,1358,Incorrect
2,relearn,1,465,C,57.95515516394552,66.7939703694557,2.897757758197276,1.049197233083882,C,738,Correct
2,relearn,1,466,C,71.25748453168276,55.216074446897025,3.562874226584138,0.8673320692121939,C,583,Incorrect
2,relearn,1,467,A,11.937076245945216,32.13042261972436,0.5968538122972608,0.5047034982943068,A,818,Correct
2,relearn,1,468,B,64.36797758711569,57.45338843038658,3.2183988793557843,0.9024757150837165,B,537,Correct
2,relearn,1,469,B,33.361122502664365,66.07482926853238,1.6680561251332182,1.037900991086106,B,1020,Incorrect
2,relearn,1,470,B,61.55567377276931,73.12938804294583,3.0777836886384655,1.1487137411861794,B,600,Correct
2,relearn,1,471,A,20.21069594877221,40.33091905517187,1.0105347974386105,0.6335165950812627,A,712,Correct
2,relearn,1,472,C,83.95305486422315,55.41859310028436,4.197652743211157,0.8705132247806767,D,770,Incorrect
2,relearn,1,473,B,71.61410232550543,59.910536709185585,3.580705116275271,0.9410725099909952,D,516,Incorrect
2,relearn,1,474,B,26.519695194790934,81.8906617077808,1.3259847597395467,1.2863355060938557,B,1749,Correct
2,relearn,1,475,A,38.38233197280963,56.633532917948614,1.9191165986404815,0.8895974548093153,C,936,Correct
2,relearn,1,476,B,34.43619794477933,87.61509953673189,1.7218098972389666,1.3762547652406771,B,710,Incorrect
2,relearn,1,477,B,67.87563088335153,64.48017543909798,3.3937815441675765,1.012852227308256,D,1269,Incorrect
2,relearn,1,478,B,68.19438799135887,83.32739910766706,3.4097193995679436,1.3089037243969577,B,690,Incorrect
2,relearn,1,479,D,53.02260444464011,26.51972686644536,2.651130222232006,0.416570895494163,C,540,Correct
2,relearn,1,480,B,54.20106627847094,64.87754309834195,2.710053313923547,1.0190940639035313,C,859,Incorrect
2,relearn,1,481,C,90.47127853701204,70.7599729159551,4.523563926850602,1.1114950554048864,C,607,Correct
2,relearn,1,482,D,30.996814427508504,35.33379426835133,1.549840721375425,0.5550219424845284,B,2165,Correct
2,relearn,1,483,D,34.152992832809375,31.73871518866171,1.707649641640469,0.4985505723553921,B,1539,Incorrect
2,relearn,1,484,B,50.99766361786109,98.51193797890423,2.5498831808930547,1.5474219032270942,B,2423,Correct
2,relearn,1,485,B,52.06396699702436,79.30659429525062,2.603198349851218,1.2457450700959276,B,660,Incorrect
2,relearn,1,486,D,33.34318807685851,10.260765537651455,1.6671594038429254,0.1611757281664657,C,687,Incorrect
2,relearn,1,487,A,26.38068252971187,32.01282201450408,1.3190341264855934,0.5028562323072181,A,810,Correct
2,relearn,1,488,B,73.75981797839383,87.02007742253932,3.6879908989196912,1.3669081797273228,C,740,Incorrect
2,relearn,1,489,C,83.1143171371544,42.94356068718765,4.15571585685772,0.6745558738692808,C,596,Correct
2,relearn,1,490,C,82.39597483883236,37.55474881194901,4.119798741941618,0.5899086148751451,C,1421,Correct
2,relearn,1,491,A,23.27544338884728,74.94000543121274,1.163772169442364,1.1771548526133857,B,1629,Incorrect
2,relearn,1,492,D,28.9949477848176,38.0753685398158,1.44974738924088,0.5980864904370462,D,773,Correct
2,relearn,1,493,A,46.58250931005742,57.084394857822275,2.329125465502871,0.896679577599767,D,621,Correct
2,relearn,1,494,B,35.762551622325255,88.78257474635252,1.7881275811162627,1.3945934229496388,D,1239,Incorrect
2,relearn,1,495,C,84.40093189819923,50.31852905763907,4.220046594909962,0.7904016061346173,D,972,Incorrect
2,relearn,1,496,A,31.640005058695067,57.31147548804455,1.5820002529347534,0.9002465517981615,C,1055,Incorrect
2,relearn,1,497,B,28.413678876022438,88.75100442841897,1.4206839438011218,1.394097517555181,B,963,Incorrect
2,relearn,1,498,D,43.050767006208666,16.27272785879092,2.1525383503104334,0.2556114114752176,B,803,Incorrect
2,relearn,1,499,B,38.64356228030191,70.74243070850332,1.9321781140150955,1.111219503054595,B,665,Incorrect
2,relearn,1,500,D,36.772713159931214,12.919528474041513,1.8386356579965608,0.20293947870946485,B,1830,Incorrect
2,relearn,1,501,C,92.2012392765196,63.979148865447634,4.61006196382598,1.0049821202930902,C,759,Correct
2,relearn,1,502,A,40.07099944736492,59.47563069006412,2.003549972368246,0.9342410222176254,C,888,Incorrect
2,relearn,1,503,C,63.44033293476535,33.34586572960832,3.1720166467382676,0.5237956340186457,C,837,Correct
2,relearn,1,504,C,67.59762685638475,57.00544524995158,3.3798813428192376,0.8954394400593153,B,471,Correct
2,relearn,1,505,A,27.103676797477018,40.43437097121678,1.3551838398738507,0.6351416139784951,A,889,Incorrect
2,relearn,1,506,C,59.685345339230324,42.33395745585365,2.984267266961516,0.6649802487034634,B,1309,Correct
2,relearn,1,507,C,92.04318150414242,57.339609531001166,4.602159075207121,0.9006884803115028,C,775,Correct
2,relearn,1,508,C,69.59891544019973,70.07396013435654,3.4799457720099864,1.1007191918301928,B,1117,Incorrect
2,relearn,1,509,B,27.11772416981818,88.80862310356721,1.3558862084909091,1.3950025895879576,D,937,Incorrect
2,relearn,1,510,A,20.479582102814547,47.42962708737482,1.0239791051407274,0.7450228401010008,D,760,Correct
2,relearn,1,511,A,18.388514821812755,29.32271424516818,0.9194257410906377,0.46060011827966557,D,666,Incorrect
2,relearn,1,512,A,9.631018464037282,71.45605034107132,0.4815509232018641,1.1224290140302604,A,731,Correct
2,relearn,1,513,B,71.60556524134589,64.42647445735678,3.580278262067294,1.0120086942596125,C,2205,Correct
2,relearn,1,514,D,68.16409340297255,42.02006834723408,3.4082046701486273,0.660049690115058,C,816,Incorrect
2,relearn,1,515,D,60.652514348707875,21.89219748253388,3.0326257174353937,0.34388183391032706,C,1363,Incorrect
2,relearn,1,516,A,24.44581867552479,47.632118188309356,1.2222909337762395,0.7482035628765671,B,1356,Incorrect
2,relearn,1,517,D,61.375223005684866,21.304653063410655,3.0687611502842436,0.33465270775645095,D,600,Incorrect
2,relearn,1,518,C,64.12491195958982,47.32806069300548,3.2062455979794913,0.7434274389089893,C,491,Incorrect
2,relearn,1,519,C,87.66705026599591,33.34118337557297,4.383352513299795,0.5237220837734509,C,509,Correct
2,relearn,1,520,D,63.0922558329082,36.393606838368356,3.15461279164541,0.5716694394052665,B,1730,Incorrect
2,relearn,1,521,A,37.13413180544683,32.318187649838336,1.8567065902723414,0.5076529044903425,C,517,Incorrect
2,relearn,1,522,D,53.92864891432897,6.407841817849423,2.6964324457164484,0.10065414390160606,D,754,Correct
2,relearn,1,523,D,59.20080192743505,19.016511483513415,2.9600400963717526,0.2987106638675584,D,575,Correct
2,relearn,1,524,B,41.19364990780758,92.64313899503472,2.059682495390379,1.4552350243614958,A,1224,Correct
2,relearn,1,525,C,90.57323046539011,31.571541561320835,4.5286615232695056,0.49592461515775177,C,739,Correct
2,relearn,1,526,D,60.993356123942505,11.951913814705968,3.049667806197125,0.18774022318309314,C,646,Incorrect
2,relearn,1,527,B,36.682129348935256,87.00652149476424,1.8341064674467629,1.3666952437117688,B,688,Incorrect
2,relearn,1,528,C,88.1072849536314,29.47693575015743,4.40536424768157,0.4630226240151646,C,742,Correct
2,relearn,1,529,C,74.98864675319483,32.137209023597904,3.749432337659741,0.504810098877074,C,691,Incorrect
2,relearn,1,530,D,31.462149370325555,26.551657814331136,1.5731074685162778,0.41707246565066364,D,1842,Correct
2,relearn,1,531,B,56.497183907817046,57.31081783119616,2.824859195390852,0.9002362213485439,C,1491,Correct
2,relearn,1,532,D,49.62760321370581,5.923652493840244,2.4813801606852905,0.09304851578533684,D,608,Correct
2,relearn,1,533,B,28.60102502806506,81.90607083455953,1.430051251403253,1.2865775520912874,B,606,Correct
2,relearn,1,534,B,52.04727000664788,56.09100744186372,2.6023635003323937,0.8810754845590473,106,881,Correct
2,relearn,1,535,D,35.80742872060213,14.225046946317622,1.7903714360301066,0.22344651491760684,D,2144,Correct
2,relearn,1,536,A,10.344212990778194,47.128680915729554,0.5172106495389097,0.7402955886911673,A,911,Incorrect
2,relearn,1,537,C,95.84624575661383,51.30619197664583,4.792312287830692,0.8059157789874906,D,952,Incorrect
2,relearn,1,538,B,35.1922970439887,57.81527238424605,1.759614852199435,0.9081601749382012,D,1135,Correct
2,relearn,1,539,D,51.321282685051656,45.87801821450518,2.5660641342525827,0.7206502249197411,C,664,Correct
2,relearn,1,540,D,56.74266289358043,6.436062796128066,2.8371331446790213,0.10109743799179258,B,964,Correct
2,relearn,1,541,D,67.41472373726026,12.481614969789652,3.370736186863013,0.19606074947013777,B,1383,Incorrect
2,relearn,1,542,C,69.28935296654019,70.98775080281769,3.46446764832701,1.115072982084975,B,2689,Incorrect
2,relearn,1,543,D,30.17959788774997,27.238595077831903,1.5089798943874984,0.427862850953119,B,1234,Incorrect
2,relearn,1,544,C,91.94488854272569,32.57013026905562,4.597244427136285,0.5116104098986385,D,776,Incorrect
2,relearn,1,545,D,44.920630956741824,49.54792416557981,2.246031547837091,0.7782969727960484,C,603,Incorrect
2,relearn,1,546,D,48.61793447532044,13.625802569789796,2.430896723766022,0.21403360626258278,C,672,Incorrect
2,relearn,1,547,B,39.574230570390455,82.90209334372821,1.9787115285195227,1.3022230370793593,B,1556,Correct
2,relearn,1,548,D,53.89145636826878,24.579451557228285,2.694572818413439,0.3860931222072729,C,1450,Incorrect
2,relearn,1,549,B,66.06736373768749,75.98585788157605,3.3033681868843745,1.193583064487387,C,747,Incorrect
2,relearn,1,550,A,20.375738324836075,53.59940469056403,1.0187869162418037,0.8419374800633113,A,844,Incorrect
2,relearn,1,551,C,75.69476513230555,72.9901648278543,3.784738256615277,1.1465268280374759,B,874,Correct
2,relearn,1,552,C,84.98055186830263,25.335131289701803,4.249027593415132,0.3979633116873004,B,1680,Correct
2,relearn,1,553,C,71.68537729632877,29.73186769111102,3.5842688648164382,0.4670270855794905,B,765,Incorrect
2,relearn,1,554,C,77.75927944044767,50.42305580753523,3.887963972022384,0.7920435084825042,B,1383,Correct
2,relearn,1,555,A,7.272651066993145,37.69000787159076,0.3636325533496573,0.592033259215655,A,736,Incorrect
2,relearn,1,556,B,56.78951061559994,85.38412355572356,2.839475530779997,1.341210676479322,B,981,Correct
2,relearn,1,557,D,61.33083258456398,47.77346179801549,3.066541629228199,0.7504237831059904,C,661,Incorrect
2,relearn,1,558,B,52.914841803983975,101.14951585401619,2.6457420901991986,1.588852879605708,C,523,Correct
2,relearn,1,559,A,22.892765279049428,47.94948504001701,1.1446382639524715,0.7531887497256557,A,785,Correct
2,relearn,1,560,C,91.25246917861773,29.802288249384425,4.5626234589308865,0.46813324912215765,D,640,Incorrect
2,relearn,1,561,C,71.09683969720665,53.67083857903619,3.554841984860332,0.8430595609595187,C,849,Incorrect
2,relearn,1,562,D,47.289528673895354,30.69322831164299,2.3644764336947675,0.48212810289405944,B,738,Incorrect
2,relearn,1,563,A,8.258391516945153,52.214104850661265,0.41291957584725764,0.820177241063023,A,837,Correct
2,relearn,1,564,B,68.34423024407917,57.48721372217249,3.417211512203959,0.9030070415246172,C,614,Correct
2,relearn,1,565,A,42.33610907287243,48.98128504980431,2.1168054536436216,0.7693962263792639,B,995,Incorrect
2,relearn,1,566,A,10.786954031241606,40.928333573183565,0.5393477015620803,0.6429007603859299,C,343,Correct
2,relearn,1,567,B,55.28807079039412,72.22085212947671,2.7644035395197064,1.134442492429794,C,732,Incorrect
2,relearn,1,568,B,74.12211588776375,80.28134741457623,3.7061057943881877,1.2610564562896132,C,401,Incorrect
2,relearn,1,569,B,50.864409209383595,84.02324977551217,2.54322046046918,1.3198341211274462,B,569,Correct
2,relearn,1,570,C,80.4462255819291,30.61951183622032,4.022311279096455,0.4809701672058773,C,640,Incorrect
2,relearn,1,571,B,35.76956372410992,92.51077337588391,1.7884781862054961,1.4531558300779355,B,825,Correct
2,relearn,1,572,B,45.08768678378583,48.8924244120883,2.2543843391892917,0.7680004067460543,C,726,Correct
2,relearn,1,573,A,34.669190623666395,59.70147725593282,1.7334595311833199,0.9377886117784835,C,919,Incorrect
2,relearn,1,574,C,59.637302039984135,54.52355250274596,2.981865101999207,0.8564539599512204,D,1092,Incorrect
2,relearn,1,575,A,28.685221176476965,49.690084649569826,1.4342610588238482,0.7805300244567176,A,1330,Correct
2,relearn,1,576,B,30.8980200788112,75.47787640318644,1.5449010039405602,1.1856037100840446,A,788,Incorrect
2,relearn,1,577,D,55.46741948972017,32.1104305697807,2.7733709744860082,0.5043894639081409,B,944,Correct
2,relearn,1,578,B,39.27957105345819,55.34273265002766,1.9639785526729097,0.8693216116145545,B,473,Incorrect
2,relearn,1,579,C,87.66586098855626,46.677334360586826,4.383293049427813,0.73320585358187,D,753,Incorrect
2,relearn,1,580,D,75.82159986686142,29.719996185435313,3.791079993343071,0.4668406084044014,C,770,Incorrect
2,relearn,1,581,B,41.84047991292023,98.82321184518666,2.092023995646011,1.552311381684931,B,972,Correct
2,relearn,1,582,D,54.126986854986896,45.38519164201272,2.706349342749345,0.7129089232215602,C,890,Incorrect
2,relearn,1,583,C,97.15792519011154,37.108751677325316,4.857896259505577,0.5829029082668656,C,1435,Correct
2,relearn,1,584,A,24.822268686412475,55.176284356273925,1.2411134343206236,0.8667070479302579,D,1010,Incorrect
2,relearn,1,585,C,84.1451904960444,65.34264991422953,4.20725952480222,1.026399944683166,B,1713,Incorrect
2,relearn,1,586,B,75.17111546196772,80.4921505135477,3.7585557730983856,1.2643677436250265,B,698,Incorrect
2,relearn,1,587,B,56.2424206356496,72.1386894858269,2.81212103178248,1.1331518846413453,B,1023,Correct
2,relearn,1,588,A,9.559337381499208,66.61001505835993,0.4779668690749604,1.0463076698142453,A,889,Correct
2,relearn,1,589,A,19.048102064385063,54.48427036091792,0.9524051032192531,0.8558369175102991,A,1433,Correct
2,relearn,1,590,B,62.42553652056643,98.17095149921224,3.1212768260283217,1.5420657001292255,B,978,Incorrect
2,relearn,1,591,C,86.37355953284063,61.007960037805816,4.318677976642032,0.9583107953263521,C,936,Correct
2,relearn,1,592,B,49.84350646112571,76.83300816745157,2.4921753230562858,1.206890070060352,B,1810,Incorrect
2,relearn,1,593,A,28.040134236078238,45.713143022395606,1.402006711803912,0.7180603714582877,A,760,Correct
2,relearn,1,594,C,75.55369596082019,75.08545134110247,3.7776847980410095,1.1794395116234069,B,774,Incorrect
2,relearn,1,595,A,7.378265675196449,50.60452391742331,0.3689132837598224,0.7948940028869302,A,653,Correct
2,relearn,1,596,C,60.09126897881506,51.62760681718057,3.004563448940753,0.810964551496384,B,1975,Correct
2,relearn,1,597,B,38.07019752896086,89.76337206368754,1.9035098764480431,1.4099997511836402,B,1941,Incorrect
2,relearn,1,598,D,44.82605733997816,14.752006796429747,2.241302866998908,0.23172398088685198,C,594,Incorrect
2,relearn,1,599,D,67.05320831347535,12.063250798971564,3.3526604156737676,0.18948910044230136,B,950,Correct
2,relearn,1,600,B,57.70407018021947,57.927881572955854,2.8852035090109736,0.9099290359380883,B,1889,Correct
2,relearn,1,601,D,63.57505470551558,46.72692082391206,3.178752735275779,0.7339847559263702,D,1308,Correct
2,relearn,1,602,C,66.84366076103447,67.41033862375917,3.3421830380517235,1.0588791229820105,C,776,Correct
2,relearn,1,603,C,71.02286591028997,58.90475792850786,3.5511432955144984,0.9252737738484271,C,690,Correct
2,relearn,1,604,C,69.26405850977002,29.63987759727862,3.4632029254885013,0.465582108564556,C,456,Correct
2,relearn,1,605,D,42.59047726640438,3.6377366689498807,2.1295238633202187,0.05714143397433575,B,910,Incorrect
2,relearn,1,606,A,33.174035797232534,37.81664140095057,1.6587017898616268,0.5940224140433298,B,911,Incorrect
2,relearn,1,607,C,87.56119977365144,36.49687198939231,4.378059988682572,0.5732915246044098,D,732,Incorrect
2,relearn,1,608,D,47.56929758093222,13.241468876482594,2.378464879046611,0.20799650672547804,C,610,Incorrect
2,relearn,1,609,A,27.2313631821391,46.69002534215847,1.3615681591069548,0.7334052030542316,C,581,Incorrect
2,relearn,1,610,D,46.714343707179864,42.026427328143974,2.3357171853589933,0.6601495767536122,B,515,Incorrect
2,relearn,1,611,A,20.476568691730726,31.544635295522085,1.0238284345865365,0.4955019725229073,A,587,Correct
2,relearn,1,612,C,67.1594472546555,38.77432224134483,3.357972362732775,0.6090656295066612,B,762,Incorrect
2,relearn,1,613,C,59.68301313632228,57.678800122527484,2.984150656816114,0.906016473664032,C,779,Correct
2,relearn,1,614,D,34.893665760459584,45.66703423991822,1.7446832880229792,0.7173360963968031,C,566,Incorrect
2,relearn,1,615,C,86.76204808331096,55.702776110779176,4.338102404165548,0.8749771610709044,C,734,Correct
2,relearn,1,616,A,37.977903982932446,54.9116854077091,1.8988951991466223,0.8625507373654637,B,618,Incorrect
2,relearn,1,617,D,67.96723109343998,33.2965518558071,3.398361554671999,0.523021013500376,B,471,Incorrect
2,relearn,1,618,B,65.29394351617286,89.32081245641592,3.264697175808643,1.4030480411287396,B,1038,Correct
2,relearn,1,619,B,30.702133517673232,83.12220583712282,1.5351066758836618,1.3056805560404183,B,682,Correct
2,relearn,1,620,A,28.432544157425905,25.424732873676568,1.4216272078712953,0.399370770077126,C,834,Incorrect
2,relearn,1,621,D,64.0501299210213,5.837484956608343,3.2025064960510643,0.09169499927560851,A,855,Incorrect
2,relearn,1,622,C,66.86275493679467,52.576790619980834,3.3431377468397336,0.8258742958053026,C,522,Correct
2,relearn,1,623,B,28.69327574432584,89.84666261575646,1.4346637872162922,1.4113080761161059,B,1078,Correct
2,relearn,1,624,A,29.05628470056937,55.88431521984021,1.4528142350284685,0.8778287707277314,A,885,Correct
2,relearn,1,625,C,78.76922397246544,55.41409431249898,3.9384611986232723,0.8704425579873937,A,2386,Incorrect
2,relearn,1,626,A,17.83329909392119,66.50847476453146,0.8916649546960597,1.044712678608571,A,1105,Correct
2,relearn,1,627,A,22.610488085758803,26.704507400099793,1.13052440428794,0.4194734213294389,D,724,Incorrect
2,relearn,1,628,A,41.1992494005743,61.709450334066084,2.059962470028715,0.969329779132831,C,781,Incorrect
2,relearn,1,629,B,48.918477991020076,72.56378048472413,2.4459238995510035,1.1398291984375586,B,527,Correct
2,relearn,1,630,D,39.5276916337928,2.3780156620228787,1.9763845816896402,0.037353782669662716,B,1069,Incorrect
2,relearn,1,631,B,29.56332249486369,71.51446107863666,1.4781661247431845,1.1233465277503905,B,1142,Correct
2,relearn,1,632,D,57.148152231266906,45.82529435273199,2.8574076115633456,0.7198220404356632,C,499,Incorrect
2,relearn,1,633,B,49.764674072148054,54.181010753512126,2.4882337036074027,0.8510733267365164,C,595,Incorrect
2,relearn,1,634,C,78.66189933082703,33.600816795092896,3.9330949665413515,0.527800395990402,C,452,Correct
2,relearn,1,635,D,60.85166408866825,42.769040719971635,3.0425832044334125,0.6718145206347279,C,463,Incorrect
2,relearn,1,636,A,8.818716601426342,32.54048015504523,0.44093583007131715,0.5111446669968728,A,636,Correct
2,relearn,1,637,D,43.851621666707786,11.209223442370277,2.1925810833353894,0.1760740700949848,B,799,Incorrect
2,relearn,1,638,A,13.219682487137955,70.87596547727868,0.6609841243568978,1.1133170622975124,A,1775,Correct
2,relearn,1,639,C,89.1789879157616,29.781474062770908,4.458949395788079,0.46780630064338036,D,649,Incorrect
2,relearn,1,640,C,98.79420900299155,56.876827326446744,4.939710450149578,0.8934191144413014,D,872,Incorrect
2,relearn,1,641,B,46.297578219441554,94.80718766631173,2.314878910972078,1.489227821399969,C,488,Incorrect
2,relearn,1,642,B,33.14835633561164,85.27337923986981,1.657417816780582,1.339471108833757,D,391,Incorrect
2,relearn,1,643,B,54.45074852580733,53.014193580541495,2.7225374262903665,0.8327450054430816,C,563,Incorrect
2,relearn,1,644,B,62.09679552016321,58.93779772329761,3.1048397760081605,0.925792761731365,C,468,Incorrect
2,relearn,1,645,D,32.71218328782111,24.455408651429224,1.6356091643910557,0.3841446607993316,B,660,Incorrect
2,relearn,1,646,C,70.45400354922613,69.55387986785954,3.5227001774613065,1.0925497901076726,B,553,Incorrect
2,relearn,1,647,D,25.30256938462807,16.374908554207515,1.2651284692314035,0.25721646208551496,C,666,Incorrect
2,relearn,1,648,A,7.39069246460112,61.481587067810196,0.369534623230056,0.9657505113163686,A,858,Correct
2,relearn,1,649,B,46.620743646774045,92.86262531255663,2.331037182338702,1.4586827073749473,B,413,Correct
2,relearn,1,650,C,70.44517406247653,24.795443827081673,3.5222587031238266,0.3894859208482908,D,581,Incorrect
2,relearn,1,651,C,72.55071825444948,64.5127256175953,3.6275359127224736,1.0133635243164572,C,792,Correct
2,relearn,1,652,D,54.013159521027475,5.543177599503718,2.700657976051374,0.08707203012072191,D,1159,Correct
2,relearn,1,653,B,31.259975639628323,63.58833805396218,1.5629987819814162,0.9988432784215594,C,542,Incorrect
2,relearn,1,654,A,51.351392410674634,45.52298214762878,2.5675696205337317,0.7150733314224494,C,778,Incorrect
2,relearn,1,655,A,46.043689275803914,63.024652994224795,2.3021844637901956,0.9899889342085129,C,1283,Incorrect
2,relearn,1,656,C,93.00843989534334,34.75944841398774,4.650421994767168,0.5460001389010863,D,670,Incorrect
2,relearn,1,657,C,84.10584122038938,54.5698738202155,4.205292061019469,0.8571815735045548,C,437,Correct
2,relearn,1,658,A,19.83559377246764,51.086955469844746,0.991779688623382,0.8024720199916656,B,764,Incorrect
2,relearn,1,659,B,69.65497402080209,65.00632178804311,3.4827487010401046,1.0211169148310517,B,646,Correct
2,relearn,1,660,B,64.60610644733275,78.99191585564023,3.230305322366638,1.2408021127253122,B,754,Correct
2,relearn,1,661,B,56.541371576409595,99.00217621757238,2.8270685788204797,1.5551225474726373,B,748,Correct
2,relearn,1,662,A,14.612542631741576,59.91287132192145,0.7306271315870788,0.941109182002095,A,606,Correct
2,relearn,1,663,B,64.5331875881385,73.71988896884007,3.226659379406925,1.157989308039816,C,1625,Incorrect
2,relearn,1,664,A,25.77872487635908,41.69925554748994,1.2889362438179541,0.6550103744407891,A,1363,Correct
2,relearn,1,665,C,85.39165561825783,56.5356776399403,4.2695827809128915,0.8880603476967859,B,525,Incorrect
2,relearn,1,666,C,64.61247121016346,29.33779224269712,3.230623560508173,0.4608369629110045,B,862,Incorrect
2,relearn,1,667,D,31.83230615836814,42.386162479059124,1.591615307918407,0.6658002832903773,B,821,Incorrect
2,relearn,1,668,D,34.78768509865331,17.045794262710267,1.7393842549326655,0.2677547101516681,A,805,Incorrect
2,relearn,1,669,A,21.27096331091998,30.73014201897792,1.063548165545999,0.48270794205296025,A,1115,Correct
2,relearn,1,670,A,35.85540795607902,71.90260786455025,1.792770397803951,1.1294435232060938,D,605,Incorrect
2,relearn,1,671,D,50.82735393297934,28.517146890295688,2.541367696648967,0.4479462958594697,C,897,Incorrect
2,relearn,1,672,A,25.86553930653229,58.183898478535866,1.2932769653266147,0.9139505400869131,B,1172,Incorrect
2,relearn,1,673,C,87.54661475400451,39.89096766367841,4.377330737700225,0.6266058547840003,C,1045,Correct
2,relearn,1,674,B,24.811569737073185,83.35123288481776,1.2405784868536593,1.309278104492977,A,848,Incorrect
2,relearn,1,675,D,46.75338989960625,19.660071011616566,2.3376694949803123,0.3088196732957413,B,1334,Incorrect
2,relearn,1,676,A,12.0168108762784,39.961239879848385,0.60084054381392,0.6277096881743558,A,589,Correct
2,relearn,1,677,A,47.64803932503209,54.63261268871712,2.3824019662516043,0.858167073346451,A,757,Correct
2,relearn,1,678,B,33.29833534930832,66.85669494468803,1.664916767465416,1.0501825084076288,A,890,Incorrect
2,relearn,1,679,A,51.18208444436132,46.37009052584311,2.559104222218066,0.728379678711412,B,1081,Incorrect
2,relearn,1,680,C,94.21186351227453,49.20854848792513,4.7105931756137265,0.7729660721174135,C,716,Correct
2,relearn,1,681,D,46.908687294902904,31.2317210517475,2.345434364745145,0.4905867270756782,C,629,Incorrect
2,relearn,1,682,A,22.506722090879006,64.57071671596094,1.1253361045439503,1.0142744463594529,A,1105,Correct
2,relearn,1,683,D,36.81476878422682,21.835779102497177,1.840738439211341,0.3429956160690733,D,586,Correct
2,relearn,1,684,D,33.14974088432503,16.931867358682062,1.6574870442162513,0.26596515052796194,D,463,Correct
2,relearn,1,685,D,64.24683961047366,28.776547691487522,3.212341980523683,0.4520209541162675,C,806,Incorrect
2,relearn,1,686,D,66.99940007132943,8.074857462115059,3.3499700035664715,0.12683956440882696,C,470,Incorrect
2,relearn,1,687,A,11.300789231857356,58.53112996792487,0.5650394615928679,0.9194048395677108,A,989,Correct
2,relearn,1,688,C,76.71837919208772,37.26573220171101,3.835918959604386,0.5853687525776994,D,644,Incorrect
2,relearn,1,689,B,41.278170480369255,85.25649309724646,2.063908524018463,1.3392058619256921,B,979,Correct
2,relearn,1,690,A,10.489834519447435,63.421248008551984,0.5244917259723717,0.996218634125816,A,629,Correct
2,relearn,1,691,B,29.979759833029757,89.45685489256353,1.4989879916514877,1.4051849907186287,B,731,Correct
2,relearn,1,692,C,99.59063645971027,48.44100560029597,4.979531822985513,0.7609095366319591,C,738,Correct
2,relearn,1,693,D,28.49262202113369,9.073988175467953,1.4246311010566846,0.14253387295405387,C,1066,Incorrect
2,relearn,1,694,D,33.79742133412654,7.850523936390221,1.689871066706327,0.12331574162697173,B,1253,Incorrect
2,relearn,1,695,B,32.81612102618571,80.9347304506493,1.6408060513092857,1.2713197730201498,B,802,Correct
2,relearn,1,696,A,24.083429065423807,67.57707536839271,1.2041714532711905,1.0614982176421315,B,1567,Incorrect
2,relearn,1,697,D,48.64886614088173,-0.5916150754644605,2.4324433070440863,-0.009293067874160602,C,947,Incorrect
2,relearn,1,698,A,9.288635434562623,41.93301124509543,0.46443177172813116,0.65868220035245,A,778,Correct
2,relearn,1,699,B,56.77914257552267,54.07039962516765,2.8389571287761335,0.8493358511954551,C,751,Incorrect
2,relearn,1,700,B,71.3529535149685,90.32881339142483,3.567647675748425,1.418881682789918,C,2603,Incorrect
2,relearn,1,701,B,57.504527415373744,59.885903571090054,2.875226370768687,0.9406855735626163,C,735,Incorrect
2,relearn,1,702,C,68.49904148940989,39.805075404497764,3.4249520744704944,0.6252566623317897,D,485,Incorrect
2,relearn,1,703,D,56.36068880881879,37.299662020016086,2.8180344404409396,0.5859017209173238,C,934,Incorrect
2,relearn,1,704,B,50.31348755176488,96.70141091451171,2.515674377588244,1.518982210603989,B,385,Correct
2,relearn,1,705,A,35.57756165977305,26.97902662865902,1.7788780829886526,0.42378555928799294,B,587,Incorrect
2,relearn,1,706,B,39.22855128137611,59.00526493725345,1.9614275640688055,0.9268525342499743,B,728,Correct
2,relearn,1,707,C,74.86708956668222,64.54670922141072,3.7433544783341115,1.0138973375169025,C,928,Correct
2,relearn,1,708,C,63.07191538740955,57.30939802533978,3.1535957693704773,0.9002139190903041,C,753,Correct
2,relearn,1,709,B,53.66490747382549,52.76110314502093,2.6832453736912742,0.8287694701784555,C,729,Incorrect
2,relearn,1,710,B,45.319672103182235,82.56693665065654,2.2659836051591116,1.2969584080555823,D,850,Incorrect
2,relearn,1,711,C,73.23964043245714,60.38647978366838,3.6619820216228565,0.9485486063226056,C,642,Correct
2,relearn,1,712,A,18.21914151761196,41.09834169761237,0.9109570758805979,0.6455712417597105,A,1030,Correct
2,relearn,1,713,B,61.17442656974451,69.30987917804781,3.0587213284872257,1.0887170362347558,B,1054,Correct
2,relearn,1,714,B,40.57327119397304,72.17855942508419,2.0286635596986518,1.133778160182694,B,610,Correct
2,relearn,1,715,D,45.79909538740124,42.90770395722481,2.2899547693700617,0.6739926376721158,B,1567,Incorrect
2,relearn,1,716,D,73.22122936280348,36.718712606650165,3.661061468140174,0.5767761888716354,C,775,Incorrect
2,relearn,1,717,C,96.61866637055455,48.7169367596828,4.830933318527728,0.7652438531480902,D,415,Incorrect
2,relearn,1,718,D,54.944682700851,43.61059971861489,2.74723413504255,0.6850336984732283,C,601,Incorrect
2,relearn,1,719,D,49.97837717199252,9.031205825501502,2.498918858599626,0.14186184937226431,C,651,Incorrect
2,relearn,1,720,A,43.996389374714425,61.03715426871157,2.199819468735721,0.9587693772330557,B,852,Incorrect
2,relearn,1,721,C,89.26621191707088,38.82843560179248,4.463310595853544,0.6099156401848782,C,569,Correct
2,relearn,1,722,B,30.62454490525591,65.37442024173922,1.5312272452627953,1.026898991820699,C,512,Incorrect
2,relearn,1,723,D,62.79816328875793,45.28688026495237,3.1399081644378963,0.7113646517218748,B,728,Incorrect
2,relearn,1,724,B,43.673043567001315,97.52151234986522,2.1836521783500658,1.5318643338265145,B,870,Correct
2,relearn,1,725,D,52.73923745874572,31.20846928045809,2.636961872937286,0.4902214891063494,C,1898,Incorrect
2,relearn,1,726,D,71.46539612232372,21.47418125411219,3.5732698061161865,0.3373156503488725,D,548,Correct
2,relearn,1,727,C,53.327624129969905,56.4486880704589,2.666381206498495,0.8866939187346773,D,843,Incorrect
2,relearn,1,728,A,17.70114302010914,67.37763260153253,0.885057151005457,1.0583653779862336,A,919,Correct
2,relearn,1,729,C,76.71955860901518,71.31284849040591,3.835977930450759,1.1201796046201058,C,1154,Correct
2,relearn,1,730,D,49.64272183782703,49.37047807542108,2.4821360918913515,0.7755096561297941,B,840,Incorrect
2,relearn,1,731,B,73.38007989977642,86.15169092286283,3.669003994988821,1.3532675964880216,C,1421,Incorrect
2,relearn,1,732,C,77.87318447966307,74.38874941731731,3.8936592239831533,1.1684957433958805,C,808,Correct
2,relearn,1,733,D,61.37355884134965,40.80088902131373,3.068677942067483,0.6408988660464583,D,1330,Correct
2,relearn,1,734,D,43.80838285673033,40.938991243858894,2.1904191428365167,0.6430681706854199,D,1132,Correct
2,relearn,1,735,C,88.48105463254701,55.995231540136956,4.42405273162735,0.8795710402127687,C,1300,Correct
2,relearn,1,736,B,45.63077346051226,80.36220635017702,2.2815386730256133,1.2623265854799157,B,764,Correct
2,relearn,1,737,C,65.00760575092679,41.59917328092135,3.2503802875463395,0.6534382858737566,C,934,Correct
2,relearn,1,738,A,22.986984614728936,52.67272866206983,1.1493492307364468,0.8273812870464354,A,1625,Correct
2,relearn,1,739,C,70.2740592327775,40.22874665867097,3.5137029616388755,0.6319116748300282,C,671,Correct
2,relearn,1,740,C,75.4523254619536,34.178432373993765,3.77261627309768,0.5368735602867719,D,1161,Incorrect
2,relearn,1,741,A,17.703744049482527,48.19651184651469,0.8851872024741263,0.7570690377283199,A,720,Correct
2,relearn,1,742,D,73.68436556555687,20.266708623323126,3.6842182782778434,0.3183487146173842,C,496,Incorrect
2,relearn,1,743,D,40.45042450470581,11.577889707417484,2.02252122523529,0.18186506624447824,D,574,Correct
2,relearn,1,744,D,63.481336893719806,44.87043890341621,3.1740668446859903,0.7048232061116101,C,675,Incorrect
2,relearn,1,745,A,29.979893481443785,75.60015196698069,1.4989946740721893,1.1875244101486926,B,2019,Incorrect
2,relearn,1,746,A,48.56312748463566,46.627026554597585,2.428156374231783,0.7324156204132998,C,739,Incorrect
2,relearn,1,747,C,63.58654760489712,59.04378327281771,3.1793273802448563,0.9274575788501603,C,675,Correct
2,relearn,1,748,B,49.84852551932073,58.25411200565571,2.4924262759660367,0.9150534515918248,C,2168,Incorrect
2,relearn,1,749,C,65.05933165904042,26.943150281018404,3.252966582952021,0.4232220149370659,D,901,Incorrect
2,relearn,1,750,C,78.34720521708562,30.72790972669188,3.917360260854281,0.48267287728772773,C,1022,Correct
2,relearn,1,751,B,28.73047805162725,60.439382536974236,1.4365239025813625,0.9493796008283074,B,758,Correct
2,relearn,1,752,B,43.6043353467851,75.71940682365302,2.180216767339255,1.1893976610568258,B,1102,Correct
2,relearn,1,753,C,61.25769269279665,45.530217749387724,3.0628846346398326,0.7151869879891005,C,740,Correct
2,relearn,1,754,D,40.848782876679934,34.31632124196745,2.0424391438339966,0.5390395135599615,C,890,Incorrect
2,relearn,1,755,D,58.573296532366896,42.15153134031475,2.928664826618345,0.6621147059814637,C,1195,Incorrect
2,relearn,1,756,C,99.05849908363746,45.0262803429966,4.9529249541818725,0.7072711577201631,D,457,Incorrect
2,relearn,1,757,B,34.45665698831412,72.22064367780179,1.7228328494157064,1.1344392180785412,B,1280,Correct
2,relearn,1,758,C,93.22874025198621,61.465487025387375,4.66143701259931,0.9654976124413787,C,686,Correct
2,relearn,1,759,B,32.94228259876921,80.5637444095063,1.6471141299384606,1.2654923379129537,B,1232,Correct
2,relearn,1,760,B,38.75210578499389,68.20710498374535,1.9376052892496944,1.071394699697811,B,1791,Correct
2,relearn,1,761,A,39.08734547500002,63.14435864040574,1.9543672737500009,0.9918692661016892,B,1052,Incorrect
2,relearn,1,762,B,61.08761159495048,69.44744071916041,3.054380579747524,1.090877847869635,C,918,Incorrect
2,relearn,1,763,B,65.49590888197703,64.71211029434467,3.274795444098851,1.0164954514950284,C,776,Incorrect
2,relearn,1,764,C,77.32668400334306,42.245615882536825,3.8663342001671532,0.6635925825147699,C,1079,Correct
2,relearn,1,765,D,40.01991249884149,21.566923466764404,2.0009956249420746,0.3387724416186018,D,754,Correct
2,relearn,1,766,A,26.21178625410778,24.740496345448705,1.310589312705389,0.3886228078251338,A,914,Correct
2,relearn,1,767,C,72.72173397728409,70.60032280357731,3.6360866988642044,1.1089872773039322,C,914,Correct
2,relearn,1,768,C,65.2482905470947,70.26554883969898,3.262414527354735,1.1037286601762657,B,913,Incorrect
2,relearn,1,769,A,39.398146815343665,55.19786407231415,1.9699073407671832,0.8670460213171505,B,825,Incorrect
2,relearn,1,770,C,56.73187496834354,35.81054476504745,2.836593748417177,0.5625107217746075,C,858,Correct
2,relearn,1,771,C,53.2265645646989,39.48946303725623,2.661328228234945,0.6202990348602493,D,809,Incorrect
2,relearn,1,772,B,38.447368399064665,94.0274965849135,1.9223684199532332,1.4769804625330178,B,859,Correct
2,relearn,1,773,C,99.1838040864871,43.57371923875774,4.959190204324355,0.6844543812503278,C,793,Correct
2,relearn,1,774,A,21.312745604352777,66.23709838786989,1.065637280217639,1.0404499084521819,A,736,Correct
2,relearn,1,775,D,44.402009452714914,7.604340502371279,2.2201004726357456,0.11944870128822466,B,671,Incorrect
2,relearn,1,776,D,30.604362746498825,8.286676476868276,1.5302181373249413,0.13016680971202363,D,657,Correct
2,relearn,1,777,B,35.027488167869805,55.74753845898354,1.7513744083934903,0.8756802863922857,C,813,Incorrect
2,relearn,1,778,B,40.985195979859185,83.83102603783209,2.049259798992959,1.3168146777167398,D,909,Incorrect
2,relearn,1,779,B,49.52801913780948,51.32316491026796,2.476400956890474,0.8061823892053763,B,1562,Correct
2,relearn,1,780,A,34.89449014384898,70.60330132233904,1.7447245071924486,1.1090340637672342,B,589,Incorrect
2,relearn,1,781,C,82.05672200989758,28.15770472060888,4.10283610049488,0.44230019146107746,C,716,Correct
2,relearn,1,782,A,22.934421034964554,75.14530790143996,1.1467210517482278,1.180379736274534,A,903,Correct
2,relearn,1,783,A,37.675780653178045,39.67476203477145,1.8837890326589022,0.623209704706806,B,684,Incorrect
2,relearn,1,784,B,44.31120822393379,78.96242358152253,2.2155604111966896,1.240338849166783,A,859,Incorrect
2,relearn,1,785,B,56.2595196625325,62.03465848971021,2.8129759831266252,0.9744381368961265,C,1173,Incorrect
2,relearn,1,786,D,57.748781119577274,23.992136855871454,2.887439055978864,0.37686760445163336,C,512,Incorrect
2,relearn,1,787,B,37.99531570632952,66.13119827687615,1.899765785316476,1.0387864333986205,B,780,Correct
2,relearn,1,788,D,44.12729731392174,45.964673613723626,2.2063648656960866,0.7220114047476337,C,1230,Incorrect
2,relearn,1,789,D,25.29555765859537,18.863603531346374,1.2647778829297684,0.29630879137154126,A,747,Incorrect
2,relearn,1,790,A,40.443887838291985,50.55585096448953,2.0221943919145993,0.7941294499301038,C,640,Incorrect
2,relearn,1,791,C,50.031507741405804,50.59529001479561,2.50157538707029,0.7947489570836346,C,683,Correct
2,relearn,1,792,A,13.818829707888945,56.25169297288715,0.6909414853944472,0.8835995269780543,A,647,Correct
2,relearn,1,793,D,43.49156973952229,15.72795154918259,2.1745784869761144,0.24705408521464117,D,808,Correct
2,relearn,1,794,B,68.00617680571708,67.31111272097922,3.4003088402858537,1.057320486145914,C,596,Incorrect
2,relearn,1,795,D,58.40244550298432,37.29719390790562,2.9201222751492164,0.5858629519029515,C,727,Incorrect
2,relearn,1,796,B,52.85297715660793,94.60728234036833,2.6426488578303964,1.4860877158829826,B,710,Correct
2,relearn,1,797,D,44.04412629882953,47.263786776976694,2.2022063149414763,0.7424178265969219,B,582,Incorrect
2,relearn,1,798,D,47.65944767474619,31.0465642827812,2.3829723837373096,0.4876782913499434,C,1120,Incorrect
2,relearn,1,799,D,61.75220988178771,39.68714484233788,3.0876104940893856,0.6234042133932137,C,732,Incorrect
2,relearn,1,800,A,4.590588298775032,67.01218817822658,0.2295294149387516,1.052624990408467,A,625,Correct
2,relearn,1,801,B,43.80494872465171,56.035107174638675,2.1902474362325854,0.8801974052148079,B,1480,Correct
2,relearn,1,802,A,38.06664511057937,49.68548266757577,1.9033322555289687,0.7804577366925951,B,1136,Incorrect
2,relearn,1,803,B,27.02893721084311,78.18954286750873,1.3514468605421555,1.228198467300548,A,564,Incorrect
2,relearn,1,804,B,51.37645999089995,95.58737451787674,2.568822999544998,1.5014829678064887,B,1460,Correct
2,relearn,1,805,D,44.87483201308554,47.02258020561369,2.243741600654277,0.738628962633964,C,831,Incorrect
2,relearn,1,806,A,6.143886967565681,58.63736122583738,0.3071943483782841,0.9210735162649085,A,622,Correct
2,relearn,1,807,B,75.18033531497736,68.87808481021857,3.759016765748868,1.0819344261655868,C,1075,Incorrect
2,relearn,1,808,C,82.19327552489253,31.2763763780713,4.109663776244627,0.4912881713012907,C,645,Correct
2,relearn,1,809,D,55.03573783785055,38.76834032916039,2.7517868918925275,0.6089716658497958,B,1374,Incorrect
2,relearn,1,810,A,33.49103556895602,39.87836243795601,1.674551778447801,0.6264078523613688,C,1201,Incorrect
2,relearn,1,811,D,74.05188340180602,16.801942347986742,3.7025941700903013,0.263924293232372,C,747,Incorrect
2,relearn,1,812,C,84.66165471247317,53.09085501861933,4.2330827356236576,0.8339492004964764,C,754,Correct
2,relearn,1,813,B,40.655349220211924,69.38644837083864,2.032767461010596,1.0899197823025706,B,951,Correct
2,relearn,1,814,C,68.13895671502252,67.02314335297984,3.406947835751126,1.0527970738910852,B,1241,Incorrect
2,relearn,1,815,C,80.44906082056566,40.23099681053137,4.022453041028283,0.6319470201327989,C,850,Correct
2,relearn,1,816,A,50.85986545286891,44.191968596039985,2.5429932726434457,0.6941658194449503,D,793,Incorrect
2,relearn,1,817,C,100.72483191273056,45.0383885992432,5.036241595636528,0.7074613537645236,D,770,Incorrect
2,relearn,1,818,D,27.20880437760478,27.19038466804647,1.3604402188802391,0.4271055636070767,A,1074,Incorrect
2,relearn,1,819,A,41.917471847113774,35.15231057881108,2.0958735923556886,0.5521712033554983,D,822,Incorrect
2,relearn,1,820,A,22.803893018888207,48.293903808458914,1.1401946509444103,0.7585988670891333,A,1647,Correct
2,relearn,1,821,B,76.33765718206388,74.92199469090743,3.816882859103194,1.1768719405662413,C,891,Incorrect
2,relearn,1,822,A,18.051151238556457,69.4660580316478,0.9025575619278229,1.091170287930335,A,794,Correct
2,relearn,1,823,C,85.74350106161434,41.73360443191557,4.287175053080717,0.655549925455642,C,972,Correct
2,relearn,1,824,A,24.21144890980458,60.63757971328454,1.210572445490229,0.9524928747936008,A,1618,Correct
2,relearn,1,825,C,74.41691861028362,47.90088787050154,3.720845930514181,0.7524253871719803,C,1002,Correct
2,relearn,1,826,D,27.802196541567714,12.582142509807273,1.3901098270783856,0.19763983237615182,D,822,Correct
2,relearn,1,827,A,10.65937487387514,56.185217215866075,0.532968743693757,0.8825553282285581,A,1182,Correct
2,relearn,1,828,D,24.863557471416193,31.151659985684528,1.2431778735708097,0.4893291307907681,D,1362,Correct
2,relearn,1,829,C,79.46500963086842,69.70308985838375,3.973250481543421,1.094893575158038,C,720,Correct
2,relearn,1,830,A,42.39514856824983,56.36929275731332,2.1197574284124916,0.8854467800721393,B,1315,Incorrect
2,relearn,1,831,C,90.02830655626151,41.724121864847675,4.501415327813075,0.6554009736404537,C,1021,Correct
2,relearn,1,832,D,36.84105595097184,33.27383397272074,1.8420527975485923,0.5226641618273298,D,984,Correct
2,relearn,1,833,C,90.1651555279299,52.62497540028317,4.508257776396494,0.8266311805643659,C,1524,Correct
2,relearn,1,834,D,33.83247192404771,33.511367883778206,1.6916235962023853,0.5263953357771127,D,602,Correct
2,relearn,1,835,D,57.06471959272391,30.731640379334955,2.8532359796361955,0.4827314782424107,D,1062,Correct
2,relearn,1,836,D,41.27469105862729,9.627559738471119,2.0637345529313644,0.1512293547318887,D,1365,Correct
2,relearn,1,837,C,59.036933753619024,66.75987944034023,2.951846687680951,1.0486617340215658,B,882,Incorrect
2,relearn,1,838,D,31.767999599414278,33.265727011279495,1.5883999799707138,0.522536817974796,D,3158,Correct
2,relearn,1,839,D,50.95362271476987,16.530036068490148,2.5476811357384936,0.25965319938171477,C,710,Incorrect
2,relearn,1,840,C,82.19501289385492,49.4196428571003,4.109750644692746,0.776281934714488,C,952,Correct
2,relearn,1,841,A,16.070893199388387,44.273310170961395,0.8035446599694194,0.6954435299159729,A,1154,Correct
2,relearn,1,842,D,39.83726937333285,18.64440826172909,1.9918634686666425,0.2928656801278847,D,2247,Correct
2,relearn,1,843,A,34.53614220850165,37.79425269632541,1.7268071104250824,0.5936707330934606,D,855,Incorrect
2,relearn,1,844,C,59.97126522958631,47.44750156502627,2.9985632614793154,0.7453036117393838,A,1615,Incorrect
2,relearn,1,845,B,43.53394799883689,90.86614509722648,2.1766973999418444,1.4273220694873543,B,637,Correct
2,relearn,1,846,C,87.2361782452029,55.81465538743559,4.361808912260145,0.8767345566390682,C,739,Correct
2,relearn,1,847,A,18.07682070006956,49.78032780760643,0.903841035003478,0.7819475606683403,A,1233,Correct
2,relearn,1,848,C,62.72475119849027,52.659348216453324,3.1362375599245134,0.8271711074981827,C,1053,Correct
2,relearn,1,849,B,46.51576822016506,77.70737482580203,2.325788411008253,1.2206245894124406,B,855,Correct
2,relearn,1,850,D,74.39206113157297,23.7246442519276,3.7196030565786486,0.3726658404544353,C,622,Incorrect
2,relearn,1,851,D,46.575180177967404,3.732630907944376,2.3287590088983703,0.058632029194801254,D,805,Correct
2,relearn,1,852,C,95.53224674776916,41.75627523598655,4.776612337388458,0.6559060376132437,C,832,Correct
2,relearn,1,853,C,58.6936440152629,62.906081770352074,2.934682200763145,0.9881264217792843,B,1171,Incorrect
2,relearn,1,854,A,43.162436694861064,33.36927083135754,2.1581218347430533,0.5241632804972051,D,1027,Incorrect
2,relearn,1,855,A,25.455627888247285,57.96000283722814,1.2727813944123643,0.9104335955773974,A,571,Correct
2,relearn,1,856,B,36.870284546654645,75.80964625639056,1.8435142273327323,1.1908151387515877,A,723,Incorrect
2,relearn,1,857,C,92.01535478189396,67.88689262774747,4.600767739094698,1.0663648157718528,C,823,Correct
2,relearn,1,858,B,34.54541634732976,67.84374934181504,1.7272708173664881,1.0656871226211675,C,3505,Incorrect
2,relearn,1,859,B,64.71539384943536,65.52905377434801,3.2357696924717683,1.0293279696709112,C,597,Incorrect
2,relearn,1,860,D,50.52469248172775,41.88210072409126,2.5262346240863875,0.6578824997585643,B,750,Incorrect
2,relearn,1,861,D,66.22362645272386,13.609183284391111,3.3111813226361932,0.21377255113800062,D,535,Correct
2,relearn,1,862,D,63.896511571202566,44.78101816347955,3.194825578560128,0.7034185884132922,D,951,Correct
2,relearn,1,863,C,77.79069024570333,41.38307265101894,3.8895345122851666,0.650043785117069,C,754,Correct
2,relearn,1,864,D,35.54155794320293,39.86811480232372,1.7770778971601464,0.6262468828772734,D,648,Correct
2,relearn,1,865,A,12.571250776710594,67.04967292722615,0.6285625388355297,1.0532137994688606,A,664,Correct
2,relearn,1,866,D,48.62460997495038,36.7958677548935,2.431230498747519,0.5779881391061749,D,1140,Correct
2,relearn,1,867,B,50.72054988850438,68.20910243839347,2.536027494425219,1.0714260756420528,C,976,Incorrect
2,relearn,1,868,A,6.149874317304054,68.26722928115638,0.3074937158652027,1.0723391299530545,A,640,Correct
2,relearn,1,869,D,36.778102263807085,37.93148737211118,1.8389051131903542,0.5958264103397923,D,554,Correct
2,relearn,1,870,C,56.5494630145077,58.021748979138394,2.8274731507253854,0.9114035017064613,C,702,Correct
2,relearn,1,871,A,27.511921556587662,75.28148582239828,1.3755960778293832,1.1825188140548533,D,1339,Incorrect
2,relearn,1,872,D,60.6349473969953,47.819654486936216,3.0317473698497652,0.7511493761668051,C,651,Incorrect
2,relearn,1,873,B,67.75267072263331,69.84004676453682,3.3876335361316654,1.0970448892091826,C,1032,Incorrect
2,relearn,1,874,C,83.57750016295384,40.573618822919144,4.178875008147692,0.6373289141181766,C,658,Correct
2,relearn,1,875,A,30.18493479494336,65.52726055595734,1.509246739747168,1.029299801862299,A,1053,Correct
2,relearn,1,876,B,52.36832071598785,54.130105340471616,2.6184160357993926,0.8502737063783363,B,686,Correct
2,relearn,1,877,C,57.41505493070252,47.06538530046303,2.8707527465351257,0.7393013434915383,B,858,Incorrect
2,relearn,1,878,C,91.18985861557684,36.88845098702354,4.559492930778842,0.5794424331157015,C,775,Correct
2,relearn,1,879,C,59.88450492688402,31.73831606179252,2.9942252463442007,0.4985443028851916,C,1264,Correct
2,relearn,1,880,A,17.962700601682982,53.19929325874573,0.8981350300841491,0.835652544389223,A,932,Correct
2,relearn,1,881,A,44.014840376839985,51.43558666811372,2.200742018841999,0.807948306048136,B,1715,Incorrect
2,relearn,1,882,B,54.27281545172126,49.782192699785966,2.713640772586063,0.781976854326195,B,1137,Correct
2,relearn,1,883,C,54.4517913006517,46.08028957493229,2.722589565032585,0.7238274960194881,B,834,Incorrect
2,relearn,1,884,C,79.44821932525684,46.085210409651786,3.972410966262842,0.7239047923105096,C,659,Correct
2,relearn,1,885,A,8.234031121070633,51.5773438552719,0.4117015560535316,0.8101750227369842,A,624,Correct
2,relearn,1,886,C,68.6801638037106,50.09833565540641,3.4340081901855295,0.7869428162605019,C,846,Correct
2,relearn,1,887,D,49.180982429672326,49.63209752496361,2.4590491214836163,0.7796191648333891,B,1054,Incorrect
2,relearn,1,888,B,45.426562618317234,93.45999551268756,2.2713281309158617,1.4680661765359715,B,749,Correct
2,relearn,1,889,B,74.0395939472525,66.6478683671215,3.701979697362625,1.0469022681978424,C,687,Incorrect
2,relearn,1,890,D,25.811881698173174,19.89617175412048,1.2905940849086588,0.3125283350865283,D,1224,Correct
2,relearn,1,891,C,58.42716121649167,58.52397061386105,2.9213580608245833,0.9192923806970541,D,995,Incorrect
2,relearn,1,892,C,70.18401100980869,71.15425881194611,3.509200550490434,1.1176884837761834,B,1241,Incorrect
2,relearn,1,893,C,66.21509174940601,48.288132195212654,3.310754587470301,0.7585082068002642,C,645,Correct
2,relearn,1,894,B,71.83450981333628,88.24047033937393,3.591725490666814,1.386078066837426,B,1369,Correct
2,relearn,1,895,B,68.99615832076708,82.30993411982936,3.4498079160383543,1.2929214217415788,B,483,Correct
2,relearn,1,896,A,18.553491070915626,64.7282987160834,0.9276745535457813,1.0167497386290663,A,754,Correct
2,relearn,1,897,D,38.86323097820546,33.91366676703106,1.9431615489102727,0.5327146318579854,C,1117,Incorrect
2,relearn,1,898,A,24.917988325652267,76.58707846277544,1.2458994162826134,1.203027015292802,A,1454,Correct
