experiment,condition,subject,trial,cat,x,y,xt,yt,resp,rt,fb
2,new_learn,2,0,D,25.228340934918826,22.970842370771248,1.2614170467459414,0.3608251481939204,B,2437,Incorrect
2,new_learn,2,1,C,69.7494541071191,24.226061873573588,3.4874727053559553,0.3805420900371528,D,986,Incorrect
2,new_learn,2,2,B,58.268344930582515,90.17061057444144,2.913417246529126,1.416396638751857,C,718,Incorrect
2,new_learn,2,3,A,29.2454440833219,52.185015341728175,1.462272204166095,0.8197203041252195,C,604,Incorrect
2,new_learn,2,4,B,62.124076802454944,56.62801398989839,3.106203840122747,0.8895107636902241,C,659,Incorrect
2,new_learn,2,5,B,58.9415595346299,84.52048882325956,2.947077976731495,1.3276447338248523,B,1170,Correct
2,new_learn,2,6,A,26.932029023022363,42.81339187821079,1.3466014511511182,0.6725111869992396,C,638,Incorrect
2,new_learn,2,7,C,61.244463974444756,59.43396656145234,3.062223198722238,0.9335865636158005,C,731,Correct
2,new_learn,2,8,C,71.33237957948695,67.14052348080425,3.5666189789743474,1.0546408766273383,C,905,Correct
2,new_learn,2,9,B,49.43685724637411,55.20225694119976,2.4718428623187054,0.8671150243402467,B,916,Correct
2,new_learn,2,10,B,60.53301979294538,79.73039131772036,3.026650989647269,1.2524020581579485,B,697,Correct
2,new_learn,2,11,A,5.652958894293658,67.11783815800388,0.2826479447146829,1.0542845364100684,A,549,Correct
2,new_learn,2,12,A,6.848298550078592,37.97940867672315,0.34241492750392966,0.5965791564323896,A,791,Correct
2,new_learn,2,13,D,32.50779921928016,7.397263978558865,1.6253899609640081,0.11619595085852467,C,947,Incorrect
2,new_learn,2,14,D,53.96470261384033,28.888198536964815,2.6982351306920167,0.4537747614958604,C,626,Incorrect
2,new_learn,2,15,A,15.514411384288998,57.23968295699053,0.7757205692144499,0.8991188373574517,A,815,Correct
2,new_learn,2,16,C,85.03684909104751,38.97038152716738,4.251842454552376,0.6121453215667021,D,589,Incorrect
2,new_learn,2,17,A,32.91950395043435,52.7915680366088,1.6459751975217174,0.8292480115764799,C,546,Incorrect
2,new_learn,2,18,B,75.8733945730119,80.16847120114576,3.7936697286505945,1.2592834008752223,B,724,Correct
2,new_learn,2,19,A,8.881708839135712,70.92640378861726,0.44408544195678556,1.1141093454393163,A,614,Correct
2,new_learn,2,20,A,36.20972096735905,63.51661207511097,1.8104860483679521,0.9977166093804067,B,737,Incorrect
2,new_learn,2,21,B,40.91796845659839,74.44543453391347,2.0458984228299193,1.1693861511252122,C,1426,Incorrect
2,new_learn,2,22,C,80.2277339006973,41.2294889344977,4.011386695034865,0.6476312977393983,C,941,Correct
2,new_learn,2,23,A,11.693098983404433,63.73842837522345,0.5846549491702216,1.001200891674806,A,906,Correct
2,new_learn,2,24,D,34.13427691560628,15.850326607352375,1.706713845780314,0.24897634813328523,D,496,Correct
2,new_learn,2,25,B,50.39026099040054,55.795929916464,2.519513049520027,0.8764404176288711,C,1476,Incorrect
2,new_learn,2,26,D,51.654604406615725,29.545868038888944,2.5827302203307863,0.46410540987453486,C,708,Incorrect
2,new_learn,2,27,A,22.787490423500095,73.96474575852565,1.1393745211750046,1.161835509498105,A,2293,Correct
2,new_learn,2,28,C,52.595594180942456,39.91207920106156,2.6297797090471224,0.6269374740377448,C,1468,Correct
2,new_learn,2,29,B,34.99194435584782,86.9320300902276,1.7495972177923909,1.3655251354655291,B,528,Correct
2,new_learn,2,30,A,27.458633968337722,65.14440270248679,1.372931698416886,1.0232858847631379,D,2671,Incorrect
2,new_learn,2,31,D,49.25323196535049,22.20429730769517,2.4626615982675246,0.34878428649989385,C,1607,Incorrect
2,new_learn,2,32,C,64.3947087433983,35.66983996708968,3.2197354371699145,0.5603005359766626,D,822,Incorrect
2,new_learn,2,33,B,38.25961445494393,65.35917895907994,1.9129807227471962,1.0266595823125306,C,542,Incorrect
2,new_learn,2,34,A,9.514227970783043,50.76251883071509,0.4757113985391521,0.7973757811814404,A,648,Correct
2,new_learn,2,35,B,30.963985492847787,68.53511925679433,1.5481992746423894,1.0765471358502272,B,2090,Correct
2,new_learn,2,36,D,54.92781030875395,15.801173282742166,2.7463905154376973,0.24820424951581055,C,713,Incorrect
2,new_learn,2,37,D,31.578119483361,13.294417386664811,1.57890597416805,0.20882821997851295,D,774,Correct
2,new_learn,2,38,A,29.650499890207293,35.1489403128526,1.4825249945103647,0.5521182633416193,D,637,Incorrect
2,new_learn,2,39,B,28.087936538579854,87.46055293839524,1.4043968269289928,1.3738271529508181,B,1569,Correct
2,new_learn,2,40,B,61.0784428421886,64.56900714189511,3.05392214210943,1.014247592432823,C,901,Incorrect
2,new_learn,2,41,B,42.140633591771135,84.59841012908203,2.1070316795885566,1.3288687188345023,B,895,Correct
2,new_learn,2,42,C,97.47744346087059,36.299617635931455,4.873872173043529,0.5701930604658038,A,517,Incorrect
2,new_learn,2,43,C,81.46885429665669,57.6128839799927,4.073442714832834,0.9049810653183308,C,691,Correct
2,new_learn,2,44,B,50.06165079436019,48.68047677417937,2.5030825397180094,0.7646711410350523,C,521,Incorrect
2,new_learn,2,45,A,46.75530908427207,40.562356759574136,2.3377654542136037,0.6371520100408319,D,481,Incorrect
2,new_learn,2,46,A,21.267592169639833,30.258858014879486,1.0633796084819918,0.47530503022781007,A,699,Correct
2,new_learn,2,47,B,50.27370297862491,92.17633867744185,2.5136851489312453,1.4479025421192802,B,686,Correct
2,new_learn,2,48,D,65.88839794372296,17.721531383631568,3.294419897186148,0.27836916402588946,C,2108,Incorrect
2,new_learn,2,49,B,57.94924843945053,83.26152603090279,2.8974624219725262,1.3078689925267974,C,590,Incorrect
2,new_learn,2,50,C,54.323167588724765,42.101207294865,2.7161583794362385,0.6613242177240445,C,676,Correct
2,new_learn,2,51,D,37.315401986925394,35.165327356546996,1.8657700993462698,0.5523756704220412,B,1738,Incorrect
2,new_learn,2,52,B,52.88545272053292,68.25517086852219,2.644272636026646,1.072149716850327,C,694,Incorrect
2,new_learn,2,53,D,47.44933468152079,22.577088386125904,2.3724667340760393,0.3546400750665029,C,561,Incorrect
2,new_learn,2,54,C,83.1557704627265,46.3739109016775,4.1577885231363245,0.7284396890346884,D,1041,Incorrect
2,new_learn,2,55,D,30.69729465782844,30.441432135659298,1.534864732891422,0.47817289781069744,D,1495,Correct
2,new_learn,2,56,A,13.269948668930983,26.0823977570285,0.6634974334465491,0.4097013459074381,A,762,Correct
2,new_learn,2,57,C,69.39926623988887,29.213074936219243,3.469963311994444,0.4588779080419724,C,1123,Correct
2,new_learn,2,58,B,53.822950696553036,72.00203236386172,2.691147534827652,1.1310052795892125,B,906,Correct
2,new_learn,2,59,A,29.262132359232844,29.17182326563949,1.4631066179616423,0.4582299283157641,D,715,Incorrect
2,new_learn,2,60,B,43.33525675865148,98.24640135808356,2.1667628379325743,1.5432508637409477,A,2328,Incorrect
2,new_learn,2,61,B,51.2437525291092,97.34485587073381,2.56218762645546,1.529089420341273,D,701,Incorrect
2,new_learn,2,62,D,29.43318475941542,14.513685753893729,1.471659237970771,0.2279804427047169,D,1490,Correct
2,new_learn,2,63,D,61.23646094405222,8.336881024948006,3.0618230472026107,0.130955420909144,D,817,Correct
2,new_learn,2,64,C,60.20746791428213,36.45913346153402,3.0103733957141063,0.5726987291950255,C,677,Correct
2,new_learn,2,65,D,66.96256590660067,16.33711945158478,3.3481282953300338,0.2566228722495883,D,994,Correct
2,new_learn,2,66,D,50.74323548501693,-1.7795432044038293,2.5371617742508463,-0.02795299928850355,D,1119,Correct
2,new_learn,2,67,A,23.792293550365763,64.06470140987605,1.1896146775182883,1.0063259765184513,B,1139,Incorrect
2,new_learn,2,68,A,9.67873312663027,32.508596332531575,0.4839366563315135,0.5106438370839865,A,576,Correct
2,new_learn,2,69,A,35.480503802927664,37.234131361753924,1.7740251901463833,0.5848723677444172,A,874,Correct
2,new_learn,2,70,D,47.090739108668885,41.369975034247915,2.3545369554334443,0.649838048233932,C,869,Incorrect
2,new_learn,2,71,A,8.016044192592663,41.082907960513026,0.4008022096296331,0.6453288091842668,A,742,Correct
2,new_learn,2,72,C,76.73458436704104,23.61464703094635,3.836729218352052,0.37093800814768535,C,1190,Correct
2,new_learn,2,73,C,93.76272757506251,39.033452320735044,4.688136378753126,0.6131360352753433,C,1645,Correct
2,new_learn,2,74,C,66.97297354918794,66.74306711115779,3.348648677459397,1.0483976465723193,B,1191,Incorrect
2,new_learn,2,75,B,28.30566968321697,61.261241585752266,1.4152834841608484,0.9622893325779442,A,790,Incorrect
2,new_learn,2,76,D,57.16321577940959,11.620752830446948,2.8581607889704794,0.18253835860657464,D,628,Correct
2,new_learn,2,77,A,45.24559416662268,42.72009297760747,2.262279708331134,0.6710456512956228,D,773,Incorrect
2,new_learn,2,78,D,64.12162616551434,39.63842088390051,3.206081308275717,0.6226388592438103,C,704,Incorrect
2,new_learn,2,79,D,48.24428089286686,13.664868869529087,2.4122140446433433,0.21464725826390224,D,1776,Correct
2,new_learn,2,80,B,34.97446497138865,62.98558345262674,1.7487232485694324,0.9893752312841951,B,833,Correct
2,new_learn,2,81,D,52.524330758394996,42.15593628825168,2.6262165379197495,0.6621838987418542,C,594,Incorrect
2,new_learn,2,82,A,31.90998163084959,38.960426583619395,1.5954990815424797,0.6119889496791159,B,612,Incorrect
2,new_learn,2,83,C,62.65199062388954,39.43236278816449,3.1325995311944768,0.6194021062449254,C,917,Correct
2,new_learn,2,84,A,37.47188074981819,58.385119743495565,1.8735940374909095,0.9171113163256304,D,1857,Incorrect
2,new_learn,2,85,B,73.04511103375779,78.99631908966776,3.6522555516878894,1.240871278563677,B,1458,Correct
2,new_learn,2,86,A,18.12396799592796,46.78840585906355,0.9061983997963979,0.7349505606000585,A,700,Correct
2,new_learn,2,87,D,28.734980414708847,23.38831039778048,1.4367490207354425,0.3673827206277247,C,2833,Incorrect
2,new_learn,2,88,D,53.964551781387875,32.107508819674315,2.698227589069394,0.5043435691647916,D,646,Correct
2,new_learn,2,89,D,38.994229974968015,34.024600425001566,1.9497114987484008,0.5344571736825654,D,513,Correct
2,new_learn,2,90,B,28.410661916770717,87.26893673410147,1.4205330958385358,1.370817252652228,B,971,Correct
2,new_learn,2,91,B,34.61727386300416,55.99851606239413,1.730863693150208,0.8796226333677372,D,632,Incorrect
2,new_learn,2,92,C,92.50942874498699,61.173150105035596,4.625471437249349,0.9609055948346277,C,910,Correct
2,new_learn,2,93,A,2.3664105970540454,37.76644570117678,0.11832052985270228,0.5932339418350738,A,683,Correct
2,new_learn,2,94,C,76.59364577326417,26.305565709670432,3.8296822886632085,0.41320685991012107,C,3433,Correct
2,new_learn,2,95,B,63.9463938499339,81.40817018684224,3.197319692496695,1.278756547005856,B,912,Correct
2,new_learn,2,96,C,56.109475946716344,42.29029560938686,2.805473797335817,0.6642944100229522,C,858,Correct
2,new_learn,2,97,D,37.98040375421612,6.5798634295234315,1.8990201877108062,0.10335625305907477,D,1856,Correct
2,new_learn,2,98,B,61.63792994968293,63.462090702416205,3.0818964974841463,0.9968601896607993,C,733,Incorrect
2,new_learn,2,99,A,6.611580833068608,67.77941644268097,0.3305790416534304,1.0646765838046488,A,617,Correct
2,new_learn,2,100,A,27.58906935375857,63.25401931102109,1.3794534676879286,0.9935918118876537,B,769,Incorrect
2,new_learn,2,101,B,49.84367338979061,74.35219799656369,2.4921836694895303,1.1679215950212911,D,715,Incorrect
2,new_learn,2,102,C,61.10058311741798,44.70890599772693,3.055029155870899,0.7022858531624778,C,911,Correct
2,new_learn,2,103,C,92.47400044362543,57.24840026682993,4.623700022181271,0.8992557685402043,C,741,Correct
2,new_learn,2,104,B,74.02328783382166,72.39915935463272,3.7011643916910826,1.1372433357729543,B,1206,Correct
2,new_learn,2,105,B,45.01076290521863,99.93434769921086,2.2505381452609314,1.5697650628656443,B,741,Correct
2,new_learn,2,106,C,64.04093604552821,70.74173293649469,3.202046802276411,1.111208542477514,B,1923,Incorrect
2,new_learn,2,107,C,73.22167723865167,28.270919195133928,3.661083861932583,0.4440785602683171,C,648,Correct
2,new_learn,2,108,B,57.96746469530299,96.83250943482707,2.8983732347651494,1.5210415013455854,B,770,Correct
2,new_learn,2,109,B,70.82962498286253,71.72153984611427,3.5414812491431262,1.126599313423501,C,1039,Incorrect
2,new_learn,2,110,D,65.41297695034287,15.647112569905628,3.270648847517143,0.24578426949754015,C,963,Incorrect
2,new_learn,2,111,B,62.3953672003194,80.632957055515,3.11976836001597,1.2665795276141363,C,741,Incorrect
2,new_learn,2,112,D,37.027238542348265,30.788956711069577,1.8513619271174133,0.4836318010759518,D,601,Correct
2,new_learn,2,113,D,47.93273551970824,13.222808346041328,2.396636775985412,0.20770338779874617,D,509,Correct
2,new_learn,2,114,A,15.41347841697198,43.84104513956348,0.7706739208485991,0.6886535266807556,A,795,Correct
2,new_learn,2,115,C,73.14086918120454,30.34215162194182,3.657043459060227,0.4766134031480002,D,937,Incorrect
2,new_learn,2,116,A,5.958075261654784,35.572681925543755,0.2979037630827392,0.5587743810288733,A,618,Correct
2,new_learn,2,117,B,48.41865737864085,99.14901271423635,2.420932868932043,1.5574290497686294,B,844,Correct
2,new_learn,2,118,B,73.75330314858901,84.80242926985515,3.6876651574294503,1.332073444003725,B,1320,Correct
2,new_learn,2,119,D,56.07239646820329,1.3096242315280406,2.8036198234101644,0.02057152932365835,D,1762,Correct
2,new_learn,2,120,B,39.59700127837784,90.96126918120427,1.9798500639188918,1.4288162751043751,B,819,Correct
2,new_learn,2,121,B,66.19418896097409,92.8174876963034,3.3097094480487046,1.4579736873568387,B,635,Correct
2,new_learn,2,122,C,91.9440065324253,48.13051827845767,4.597200326621265,0.7560324131853594,C,611,Correct
2,new_learn,2,123,B,40.57471379927569,97.3486711227702,2.0287356899637845,1.5291493501801185,B,603,Correct
2,new_learn,2,124,C,60.852839922756544,53.32939507047663,3.042641996137827,0.8376961788689854,C,624,Correct
2,new_learn,2,125,C,69.73434653262399,40.07267184776662,3.4867173266311995,0.6294600574332906,C,637,Correct
2,new_learn,2,126,C,82.98603798946137,70.87915126560681,4.149301899473068,1.11336710454355,C,1658,Correct
2,new_learn,2,127,A,4.192557695373857,64.30591697560861,0.20962788476869285,1.010114981764636,A,774,Correct
2,new_learn,2,128,B,44.175709897759965,65.92628582315366,2.2087854948879984,1.0355676761024022,D,1465,Incorrect
2,new_learn,2,129,B,49.57463564025827,93.74327184164318,2.4787317820129133,1.4725158707058856,B,573,Correct
2,new_learn,2,130,D,40.576809155725726,30.011886513682143,2.0288404577862864,0.47142561095877206,D,1057,Correct
2,new_learn,2,131,B,34.868950280807496,65.04731754814298,1.743447514040375,1.0217608747248423,B,1061,Correct
2,new_learn,2,132,D,48.50326722329251,40.19317321609033,2.4251633611646257,0.6313528885006572,C,2525,Incorrect
2,new_learn,2,133,B,70.74866529178809,66.61428545612137,3.537433264589404,1.0463747490654214,C,779,Incorrect
2,new_learn,2,134,D,48.150633327073194,34.61188323789821,2.40753166635366,0.5436821905354436,D,1383,Correct
2,new_learn,2,135,C,55.62933294086014,47.92010521879039,2.7814666470430067,0.752727252573009,D,1449,Incorrect
2,new_learn,2,136,C,61.92228263524915,51.41798583795058,3.096114131762457,0.8076718328544478,C,766,Correct
2,new_learn,2,137,C,89.40009797168354,63.6495416673515,4.470004898584176,0.9998046625325446,C,1105,Correct
2,new_learn,2,138,B,44.803221746450454,70.5612719310808,2.2401610873225226,1.1083738676331754,D,1331,Incorrect
2,new_learn,2,139,A,40.36757911839593,35.1936555932214,2.0183789559197964,0.5528206493231684,D,3063,Incorrect
2,new_learn,2,140,D,48.65760299857513,20.61051731465325,2.4328801499287565,0.3237492489119994,D,743,Correct
2,new_learn,2,141,C,68.792938421759,41.86824768378543,3.43964692108795,0.6576648967102908,C,584,Correct
2,new_learn,2,142,B,74.19614839631419,81.47032277397628,3.7098074198157094,1.2797328375615653,C,969,Incorrect
2,new_learn,2,143,C,67.6067332445163,45.31277098220776,3.3803366622258153,0.7117713421575033,C,606,Correct
2,new_learn,2,144,B,69.16092116489908,65.55706232376971,3.458046058244954,1.0297679269364157,B,794,Correct
2,new_learn,2,145,B,50.95280673392006,84.2425646760733,2.547640336696003,1.3232791115295743,B,530,Correct
2,new_learn,2,146,C,85.6819797322537,39.36054843941076,4.284098986612685,0.6182740490925902,C,1348,Correct
2,new_learn,2,147,A,31.00156519919648,38.769905069030266,1.5500782599598242,0.6089962447261958,D,1129,Incorrect
2,new_learn,2,148,A,9.887076367193137,31.663283965231912,0.49435381835965686,0.49736570146850034,A,693,Correct
2,new_learn,2,149,D,63.31301544621353,48.01095776750752,3.165650772310676,0.7541543610710573,C,3005,Incorrect
2,new_learn,2,150,B,47.715474711529815,101.6130571263975,2.3857737355764908,1.596134168885452,B,736,Correct
2,new_learn,2,151,A,10.894636782556736,52.87827491982123,0.5447318391278368,0.830610000113059,A,579,Correct
2,new_learn,2,152,A,36.66009649262254,56.011431569311114,1.833004824631127,0.8798255096759761,A,558,Correct
2,new_learn,2,153,D,42.553053587587726,20.82565615691378,2.1276526793793864,0.32712864194373686,A,998,Incorrect
2,new_learn,2,154,C,57.830118206933044,70.33277697574232,2.8915059103466523,1.1047846772678072,B,2267,Incorrect
2,new_learn,2,155,B,45.26284961684773,61.772029584361334,2.2631424808423866,0.9703127716978047,B,2493,Correct
2,new_learn,2,156,A,35.81446746312627,33.57848558411354,1.7907233731563137,0.5274496181486092,A,1201,Correct
2,new_learn,2,157,C,69.34033913977483,54.589536053925904,3.4670169569887412,0.8574904271494439,C,1213,Correct
2,new_learn,2,158,D,46.39946552361765,34.34044339658821,2.3199732761808827,0.5394184234786883,C,1537,Incorrect
2,new_learn,2,159,B,66.26827794295828,54.891745711009236,3.313413897147914,0.8622375253421282,C,771,Incorrect
2,new_learn,2,160,C,80.39649957964633,37.1845967484102,4.019824978982316,0.5840942798575219,C,722,Correct
2,new_learn,2,161,D,50.26070740626665,47.53089726910733,2.5130353703133324,0.7466135883957937,B,6272,Incorrect
2,new_learn,2,162,D,35.62384947116931,40.63765596751723,1.7811924735584654,0.6383348072333078,A,1175,Incorrect
2,new_learn,2,163,D,32.66001344142177,38.00100369945504,1.6330006720710883,0.5969183702562325,A,1096,Incorrect
2,new_learn,2,164,B,35.39546069896397,84.83428767687639,1.7697730349481986,1.3325738746909899,B,822,Correct
2,new_learn,2,165,D,53.53105587555914,51.11917361864774,2.6765527937779567,0.8029781014896246,C,2029,Incorrect
2,new_learn,2,166,B,27.719844141889777,85.94011686691476,1.3859922070944888,1.3499441989887386,B,674,Correct
2,new_learn,2,167,A,4.444147493190869,45.480934704828776,0.22220737465954343,0.7144128517354358,A,606,Correct
2,new_learn,2,168,C,56.24963094365738,66.49455123069804,2.8124815471828692,1.0444939682505554,B,1632,Incorrect
2,new_learn,2,169,C,73.91422229708478,47.319515563437015,3.695711114854239,0.7432932123276079,C,1021,Correct
2,new_learn,2,170,A,4.577770902680015,61.17090292112809,0.22888854513400075,0.9608702961523521,A,572,Correct
2,new_learn,2,171,C,96.00232113224197,63.205490593020095,4.800116056612098,0.9928295245678534,C,1082,Correct
2,new_learn,2,172,D,61.96143203452874,28.055937268636416,3.098071601726437,0.44070163206362134,D,1066,Correct
2,new_learn,2,173,A,45.32653217999034,64.39636183215082,2.266326608999517,1.011535686248976,C,819,Incorrect
2,new_learn,2,174,D,62.45847682936694,4.667786314718178,3.122923841468347,0.07332141597422802,D,730,Correct
2,new_learn,2,175,C,96.55854843326978,49.74550392969246,4.827927421663489,0.7814005484732202,C,1099,Correct
2,new_learn,2,176,B,52.98422195648961,80.57169752406313,2.6492110978244807,1.2656172651442783,B,717,Correct
2,new_learn,2,177,B,59.09445238059403,63.348009048193695,2.9547226190297016,0.9950681992267252,B,690,Correct
2,new_learn,2,178,C,61.83001100221111,31.43116188167566,3.0915005501105552,0.49371953630631893,C,815,Correct
2,new_learn,2,179,D,54.27581455602716,18.204033404202335,2.713790727801358,0.2859482880417263,D,1452,Correct
2,new_learn,2,180,C,72.92598567138987,63.15878975120961,3.646299283569493,0.992095949460112,C,859,Correct
2,new_learn,2,181,B,68.84775537652123,86.12521390558743,3.442387768826062,1.352851696473215,B,1500,Correct
2,new_learn,2,182,A,37.0576891989116,67.06329129985251,1.85288445994558,1.0534277163658445,A,1625,Correct
2,new_learn,2,183,C,65.605651226091,31.549827291714365,3.28028256130455,0.4955835282083831,C,1228,Correct
2,new_learn,2,184,A,15.03609105610043,38.777815223820994,0.7518045528050215,0.6091204971470925,A,647,Correct
2,new_learn,2,185,B,75.89223522323311,73.80712852995485,3.7946117611616557,1.1593596638613188,B,1840,Correct
2,new_learn,2,186,B,40.306645552072624,79.18879853217409,2.015332277603631,1.2438947385764016,A,1082,Incorrect
2,new_learn,2,187,A,10.912733626949604,68.5164433611217,0.5456366813474802,1.0762537755670056,A,691,Correct
2,new_learn,2,188,D,34.22179418681052,8.362912066910013,1.711089709340526,0.13136431556010963,D,874,Correct
2,new_learn,2,189,C,53.86639449575345,50.59925462053549,2.6933197247876723,0.7948112329649685,C,674,Correct
2,new_learn,2,190,A,30.253023964206736,54.19777308074622,1.512651198210337,0.8513366287569948,C,804,Incorrect
2,new_learn,2,191,D,38.23324374238291,47.30488120781377,1.9116621871191455,0.743063336407028,A,631,Incorrect
2,new_learn,2,192,C,50.59465903039653,39.959384031242195,2.5297329515198266,0.6276805365726189,C,1061,Correct
2,new_learn,2,193,C,69.61722697836052,54.60929212470861,3.480861348918026,0.8578007547836175,C,631,Correct
2,new_learn,2,194,D,33.00593649605624,10.862582781838235,1.6502968248028123,0.17062905133216988,D,1196,Correct
2,new_learn,2,195,D,31.849894434204987,8.91691934222425,1.5924947217102494,0.14006664149092218,D,533,Correct
2,new_learn,2,196,A,6.505295931453869,64.34471849512869,0.32526479657269347,1.0107244746079977,A,539,Correct
2,new_learn,2,197,C,70.92693707884335,59.06548231930173,3.546346853942168,0.9277984266752807,C,920,Correct
2,new_learn,2,198,B,24.00120463947858,81.48074959603518,1.2000602319739289,1.279896621699468,B,729,Correct
2,new_learn,2,199,A,20.396947603995013,34.35652721700612,1.0198473801997507,0.539671067539021,A,1120,Correct
2,new_learn,2,200,C,92.75686753025587,61.835901158008625,4.6378433765127935,0.9713160640305224,C,629,Correct
2,new_learn,2,201,B,68.50624504067837,88.7229913821355,3.4253122520339185,1.393657489653137,B,738,Correct
2,new_learn,2,202,B,33.64539092397433,58.597106165385014,1.6822695461987167,0.9204411912539737,A,1195,Incorrect
2,new_learn,2,203,D,73.66215929526874,33.434845872734144,3.683107964763437,0.525193330838443,C,1308,Incorrect
2,new_learn,2,204,C,65.69890303366633,60.426818790056856,3.2849451516833166,0.9491822499532214,B,1232,Incorrect
2,new_learn,2,205,C,64.98118834115508,56.81895226738692,3.2490594170577536,0.8925100151394593,C,967,Correct
2,new_learn,2,206,C,63.31162423183517,49.428166012098835,3.1655812115917583,0.776415816120132,C,908,Correct
2,new_learn,2,207,D,58.48936835977038,36.26710255455624,2.924468417988519,0.5696823147619074,C,1324,Incorrect
2,new_learn,2,208,A,31.393907896299197,65.77950970448131,1.56969539481496,1.033262122221685,A,1027,Correct
2,new_learn,2,209,B,42.37949856467242,73.0515297523211,2.1189749282336208,1.1474907460169406,B,1700,Correct
2,new_learn,2,210,B,65.7203895859817,65.14464109547458,3.2860194792990853,1.0232896294314335,C,9240,Incorrect
2,new_learn,2,211,D,46.848232481142645,27.898883055275835,2.3424116240571324,0.43823463024907666,C,800,Incorrect
2,new_learn,2,212,C,70.5777129326844,76.2482302444543,3.52888564663422,1.1977043999260035,B,2116,Incorrect
2,new_learn,2,213,A,14.500074900529269,44.95325797780582,0.7250037450264634,0.7061241250900077,A,721,Correct
2,new_learn,2,214,C,70.05063759143003,40.62223081944829,3.5025318795715012,0.6380925095740382,C,1481,Correct
2,new_learn,2,215,B,41.03504388990827,62.42988531718994,2.0517521944954136,0.980646345384686,C,723,Incorrect
2,new_learn,2,216,C,56.37154892826546,51.73365924808048,2.8185774464132733,0.8126304191854364,C,5005,Correct
2,new_learn,2,217,D,60.23419709038032,16.853382639250977,3.011709854519016,0.26473231543804315,D,793,Correct
2,new_learn,2,218,C,71.24815304789635,42.01581249671226,3.562407652394818,0.6599828393713872,C,961,Correct
2,new_learn,2,219,C,71.36685636653874,58.47850686259888,3.5683428183269372,0.9185782377622047,C,667,Correct
2,new_learn,2,220,A,14.603906149952255,31.627583457204498,0.7301953074976127,0.49680491919975855,A,534,Correct
2,new_learn,2,221,A,0.9677213790006292,44.88853273046263,0.04838606895003146,0.7051074232822317,A,587,Correct
2,new_learn,2,222,D,71.39363464878322,23.166465197168023,3.569681732439161,0.36389798436533344,C,678,Incorrect
2,new_learn,2,223,D,66.69916006503534,35.123855314109086,3.334958003251767,0.5517242291027795,C,529,Incorrect
2,new_learn,2,224,C,80.1815869152787,64.45403875235264,4.009079345763935,1.0124416731929144,C,632,Correct
2,new_learn,2,225,A,10.779465358856335,53.85244154499354,0.5389732679428167,0.8459121736781273,A,539,Correct
2,new_learn,2,226,A,21.80586219413285,66.53186756195987,1.0902931097066426,1.045080131811311,A,1553,Correct
2,new_learn,2,227,B,59.41456557246259,76.35580066409977,2.9707282786231297,1.1993941121265124,B,1187,Correct
2,new_learn,2,228,D,35.98131266175483,31.627040703953128,1.7990656330877415,0.4967963936516225,A,1619,Incorrect
2,new_learn,2,229,B,39.70680258237379,67.30459402101854,1.9853401291186896,1.0572180906463768,B,749,Correct
2,new_learn,2,230,A,5.097386157616548,59.302363293116734,0.2548693078808274,0.9315193443108427,A,575,Correct
2,new_learn,2,231,D,43.949969253728824,4.924143764389132,2.197498462686441,0.07734826937712444,D,755,Correct
2,new_learn,2,232,B,53.54887554804126,99.94215636184745,2.677443777402063,1.5698877210515119,B,818,Correct
2,new_learn,2,233,A,40.802746450732556,30.440687557946713,2.040137322536628,0.4781612020113381,D,1261,Incorrect
2,new_learn,2,234,C,60.25227043719393,52.08234819463729,3.0126135218596968,0.8181076123498907,C,768,Correct
2,new_learn,2,235,A,11.798226589452348,30.44740572660659,0.5899113294726174,0.4782667307578753,A,1510,Correct
2,new_learn,2,236,D,47.91700940560477,32.38064339104742,2.3958504702802386,0.5086339569791273,C,3472,Incorrect
2,new_learn,2,237,A,9.26335134409197,53.57979762126405,0.4631675672045985,0.8416294929389551,A,873,Correct
2,new_learn,2,238,B,76.60350225996977,74.67271089655357,3.830175112998489,1.172956199881236,B,1295,Correct
2,new_learn,2,239,D,60.07993532091187,13.879150249330095,3.003996766045594,0.21801318230682187,D,1110,Correct
2,new_learn,2,240,B,48.33649239351121,82.44817722651908,2.4168246196755603,1.295092939383508,B,2033,Correct
2,new_learn,2,241,A,15.289542033953,62.81222933647688,0.76447710169765,0.9866521911953654,A,706,Correct
2,new_learn,2,242,B,69.01766724942823,76.40012490463562,3.4508833624714113,1.2000903556687292,B,1976,Correct
2,new_learn,2,243,B,47.295238732995124,50.443336946419976,2.364761936649756,0.7923620838671379,C,742,Incorrect
2,new_learn,2,244,C,77.46460765009836,57.695038683766754,3.873230382504918,0.9062715483875028,C,809,Correct
2,new_learn,2,245,B,34.54775903911891,57.214006545946006,1.7273879519559454,0.8987155132359115,D,1281,Incorrect
2,new_learn,2,246,D,56.00670863690118,46.006827034592334,2.800335431845059,0.7226735491342577,C,1550,Incorrect
2,new_learn,2,247,D,64.17406994256544,37.90996709901119,3.2087034971282717,0.5954883706804217,C,1623,Incorrect
2,new_learn,2,248,A,22.228999262740288,50.459347760905644,1.1114499631370145,0.7926135811529686,A,1390,Correct
2,new_learn,2,249,C,74.34084100462253,43.854543163926344,3.7170420502311265,0.6888655531516373,C,1696,Correct
2,new_learn,2,250,D,67.5722876452097,20.3564282357178,3.3786143822604853,0.31975802699329436,D,591,Correct
2,new_learn,2,251,A,9.109611993202186,43.90148701761041,0.45548059966010934,0.6896029454809626,A,594,Correct
2,new_learn,2,252,A,34.66097006218098,25.311632865388862,1.733048503109049,0.39759419930133805,D,782,Incorrect
2,new_learn,2,253,B,60.35093200260698,84.31750994435455,3.0175466001303493,1.324456349050843,B,1230,Correct
2,new_learn,2,254,D,54.75994046146514,15.301819796729129,2.737997023073257,0.24036042329979546,D,1369,Correct
2,new_learn,2,255,B,42.96873799337814,94.12944788312501,2.148436899668907,1.4785819097804442,B,1068,Correct
2,new_learn,2,256,D,38.728092049078526,44.651097673200155,1.9364046024539263,0.7013778021242295,D,1032,Correct
2,new_learn,2,257,B,51.180934213368275,79.26592933630943,2.559046710668414,1.2451063064145866,B,2276,Correct
2,new_learn,2,258,A,41.65699630428783,30.115285704135506,2.0828498152143915,0.4730498016443492,A,1691,Correct
2,new_learn,2,259,B,34.93232357700883,66.74953387899649,1.7466161788504417,1.0484992263239918,B,903,Correct
2,new_learn,2,260,D,67.05408447454516,42.73309003308347,3.352704223727258,0.6712498085656312,C,807,Incorrect
2,new_learn,2,261,D,31.291825768795572,33.174138818413724,1.5645912884397786,0.5210981540054825,A,763,Incorrect
2,new_learn,2,262,D,54.977726300656975,22.18613189434248,2.748886315032849,0.3484989448542027,D,644,Correct
2,new_learn,2,263,B,48.03358546579262,83.48960367988268,2.401679273289631,1.3114516278592139,B,772,Correct
2,new_learn,2,264,C,93.56548222582464,47.54066779669563,4.678274111291232,0.7467670634842593,C,811,Correct
2,new_learn,2,265,B,43.28090377493275,99.83000282073446,2.1640451887466376,1.5681260173473388,B,646,Correct
2,new_learn,2,266,C,82.99957691636762,61.382701463437535,4.149978845818381,0.9641972198751539,B,1641,Incorrect
2,new_learn,2,267,D,28.722458943686945,35.41146603811983,1.4361229471843473,0.5562420077910086,D,1022,Correct
2,new_learn,2,268,A,47.51908684427635,59.53675724326923,2.375954342213818,0.9352011958700677,A,1762,Correct
2,new_learn,2,269,D,70.04964727304396,20.192643324089346,3.502482363652198,0.31718529961759034,C,2097,Incorrect
2,new_learn,2,270,B,50.05206403379987,94.04468411001685,2.5026032016899937,1.4772504435460083,B,791,Correct
2,new_learn,2,271,C,60.07292214323145,28.127846835545377,3.0036461071615723,0.4418311848992413,D,1605,Incorrect
2,new_learn,2,272,C,55.12674394822547,48.216391347641036,2.7563371974112734,0.7573813042017977,C,3291,Correct
2,new_learn,2,273,A,28.029144185714145,29.79909235664017,1.4014572092857072,0.4680830481563225,D,1077,Incorrect
2,new_learn,2,274,C,89.42354977349757,53.42444321729473,4.471177488674879,0.8391891916678909,C,636,Correct
2,new_learn,2,275,D,51.06593504669469,23.39210285236421,2.5532967523347345,0.36744229236502124,D,4777,Correct
2,new_learn,2,276,B,28.25354046753218,72.72037772628822,1.4126770233766088,1.1422890221559094,A,1123,Incorrect
2,new_learn,2,277,B,52.10942043657799,58.438333877624174,2.6054710218288992,0.9179472019898581,B,595,Correct
2,new_learn,2,278,C,72.27411922052698,56.705658352600715,3.613705961026349,0.8907303984875155,B,1193,Incorrect
2,new_learn,2,279,C,80.59168483841405,69.58347459583013,4.029584241920703,1.0930146630075597,C,959,Correct
2,new_learn,2,280,A,43.501096498178065,48.71729840578821,2.1750548249089032,0.76524953387183,C,743,Incorrect
2,new_learn,2,281,A,41.61176898773243,44.96918173329506,2.080588449386622,0.7063742548563204,A,5082,Correct
2,new_learn,2,282,B,64.5388524607651,71.54445821624272,3.226942623038255,1.12381772168605,B,1676,Correct
2,new_learn,2,283,A,29.208200105701906,50.89941590579872,1.4604100052850952,0.7995261554083437,A,1282,Correct
2,new_learn,2,284,A,33.59331505051761,64.80917351384808,1.6796657525258807,1.0180201169816567,A,1638,Correct
2,new_learn,2,285,A,49.13463651816985,55.69843492621518,2.4567318259084927,0.8749089699032336,B,873,Incorrect
2,new_learn,2,286,B,46.42769440700862,68.03175594511448,2.3213847203504314,1.0686403234399269,B,1465,Correct
2,new_learn,2,287,A,16.566172229147664,47.35399044070404,0.8283086114573832,0.7438347424333855,A,921,Correct
2,new_learn,2,288,A,12.582094060645243,36.74956780254949,0.6291047030322622,0.5772608611554474,A,602,Correct
2,new_learn,2,289,A,38.6007851035921,60.67944946537957,1.930039255179605,0.9531505633215477,B,3126,Incorrect
2,new_learn,2,290,A,33.914946094674804,61.86489960489354,1.6957473047337401,0.9717715705690182,A,1434,Correct
2,new_learn,2,291,A,27.297417759895453,61.814595029988176,1.3648708879947724,0.9709813881541951,A,2064,Correct
2,new_learn,2,292,C,55.00145485990126,58.771990382299464,2.750072742995063,0.9231882661094098,B,1439,Incorrect
2,new_learn,2,293,C,86.34726549153635,56.4399100870924,4.317363274576818,0.8865560344943897,C,735,Correct
2,new_learn,2,294,C,54.88197472895098,41.166369245511646,2.744098736447549,0.646639815983321,C,857,Correct
2,new_learn,2,295,C,77.66153672170437,63.438533458958716,3.883076836085218,0.996490153345875,C,601,Correct
2,new_learn,2,296,C,98.06127507949334,55.52215616875124,4.903063753974667,0.8721399896560705,C,647,Correct
2,new_learn,2,297,C,78.66727806757756,73.29012976767635,3.933363903378878,1.151238666293873,C,1061,Correct
2,new_learn,2,298,D,42.77002064421649,10.30948124402385,2.1385010322108244,0.16194095269273542,D,973,Correct
2,new_learn,2,299,A,29.34806133188482,60.35398108582817,1.467403066594241,0.9480381179706754,D,1492,Incorrect
2,new_learn,2,300,D,36.95165238133048,16.073025896803173,1.8475826190665243,0.2524745003917767,D,505,Correct
2,new_learn,2,301,A,22.143620783995267,26.589010102028034,1.1071810391997632,0.4176591940137803,A,630,Correct
2,new_learn,2,302,D,44.598045655982965,5.530295730389092,2.229902282799148,0.08686968219384684,D,888,Incorrect
2,new_learn,2,303,A,35.42693343011939,49.05866894917776,1.7713466715059696,0.7706117698281526,A,1660,Correct
2,new_learn,2,304,D,62.73843587478078,7.13860499855619,3.1369217937390386,0.1121329451017175,D,864,Correct
2,new_learn,2,305,B,60.219910752851476,82.36446627696333,3.010995537642574,1.2937780108627615,B,2232,Correct
2,new_learn,2,306,C,52.02286534185693,60.82857945137936,2.601143267092846,0.9554930916637822,B,2060,Incorrect
2,new_learn,2,307,D,38.30134284002321,7.412367066435845,1.9150671420011605,0.11643318960812889,D,691,Correct
2,new_learn,2,308,C,65.21426172301067,54.469745704599745,3.2607130861505333,0.8556087647423736,C,1203,Incorrect
2,new_learn,2,309,C,76.57464637856161,52.507137673056576,3.828732318928081,0.8247801898735119,C,602,Correct
2,new_learn,2,310,B,29.508438677220703,80.62616393068683,1.4754219338610353,1.2664728214588605,B,841,Incorrect
2,new_learn,2,311,C,68.12323320116343,71.59010575672343,3.4061616600581717,1.1245347515751936,B,1162,Correct
2,new_learn,2,312,C,85.70586503056529,45.493916733529566,4.285293251528264,0.7146167729654112,C,1117,Incorrect
2,new_learn,2,313,D,69.64536899392394,41.39816246594162,3.482268449696197,0.6502808153755945,C,633,Correct
2,new_learn,2,314,B,36.90418527795134,95.53793094668785,1.845209263897567,1.5007063100064175,B,736,Incorrect
2,new_learn,2,315,C,56.30327630651741,34.169646403273674,2.8151638153258705,0.5367355505814274,D,2245,Incorrect
2,new_learn,2,316,D,56.56713414693468,1.4649542579457915,2.828356707346734,0.023011447673037925,B,1142,Incorrect
2,new_learn,2,317,B,25.113935271769495,82.66696608235434,1.2556967635884748,1.2985296666944048,A,2420,Incorrect
2,new_learn,2,318,D,47.77075574446241,19.282861714223582,2.3885377872231204,0.3028944835079635,A,4364,Incorrect
2,new_learn,2,319,B,35.37912344248397,62.537396265969484,1.7689561721241986,0.9823351234190175,B,1049,Correct
2,new_learn,2,320,A,16.770881247372255,41.76208813964558,0.8385440623686128,0.6559973464903999,A,716,Correct
2,new_learn,2,321,A,45.32747707363552,33.877741686040366,2.266373853681776,0.5321503220053855,B,1039,Incorrect
2,new_learn,2,322,A,35.194541004654994,29.595236928198318,1.7597270502327496,0.46488089457438597,A,836,Correct
2,new_learn,2,323,D,24.632707108598805,19.634970947207268,1.2316353554299402,0.30842540240597693,A,761,Correct
2,new_learn,2,324,C,59.92541358473069,48.152741306161175,2.9962706792365346,0.7563814916882288,C,988,Incorrect
2,new_learn,2,325,B,59.38590973756855,67.49990651934321,2.969295486878427,1.060286052195832,B,1279,Incorrect
2,new_learn,2,326,A,9.952151276372865,72.11553123121843,0.49760756381864324,1.1327881156286055,A,705,Correct
2,new_learn,2,327,B,67.6033696321881,64.40759759856347,3.380168481609405,1.011712177255073,B,1354,Correct
2,new_learn,2,328,C,77.49070212335158,23.684875830712613,3.874535106167579,0.37204115955476597,C,855,Correct
2,new_learn,2,329,A,41.03059543255172,68.62890394713445,2.0515297716275858,1.0780203023211856,B,782,Correct
2,new_learn,2,330,C,64.8223736643805,72.43201912050368,3.2411186832190255,1.137759495768249,B,1580,Incorrect
2,new_learn,2,331,C,89.06943141286546,27.656961972720897,4.453471570643273,0.4344345427705612,C,832,Correct
2,new_learn,2,332,C,84.24598099572265,44.68921654854337,4.212299049786132,0.7019765720179364,C,612,Correct
2,new_learn,2,333,B,52.01495282390489,54.31373402157362,2.6007476411952446,0.8531581389560285,C,902,Correct
2,new_learn,2,334,A,7.6698143561937435,30.17356432953554,0.38349071780968713,0.4739652401514394,A,698,Incorrect
2,new_learn,2,335,D,28.300708900633968,13.445657262818646,1.4150354450316984,0.2112038903977865,A,1225,Incorrect
2,new_learn,2,336,D,65.94515322190598,25.728006498977162,3.297257661095299,0.4041345810434856,D,683,Correct
2,new_learn,2,337,B,26.415025561886413,76.22974263247154,1.3207512780943207,1.1974139971960664,A,1183,Incorrect
2,new_learn,2,338,D,34.249335693959026,43.26042359877264,1.7124667846979513,0.6795331448454333,B,1009,Correct
2,new_learn,2,339,A,34.18585674118709,54.62853810733009,1.7092928370593543,0.8581030699716915,B,3042,Incorrect
2,new_learn,2,340,A,40.05619987099263,50.23490412118072,2.0028099935496315,0.7890880287044448,A,2604,Correct
2,new_learn,2,341,B,59.00621383067323,89.3490774056173,2.9503106915336614,1.4034920259125654,B,1838,Correct
2,new_learn,2,342,A,23.15293497954272,65.79439313024457,1.157646748977136,1.0334959105268755,A,1738,Incorrect
2,new_learn,2,343,B,42.09301912694389,83.07158922736949,2.1046509563471942,1.3048854721936647,B,1236,Correct
2,new_learn,2,344,B,53.589290926224024,85.68612552980593,2.679464546311201,1.3459545123950558,B,927,Correct
2,new_learn,2,345,C,65.59571917617279,28.17609597748788,3.2797859588086395,0.4425890806485842,C,1623,Correct
2,new_learn,2,346,C,66.04133154442827,42.001670011983535,3.3020665772214137,0.659760689740751,C,567,Incorrect
2,new_learn,2,347,A,38.738203799891274,52.30316410946156,1.9369101899945635,0.8215761806289289,B,788,Correct
2,new_learn,2,348,A,47.756058282701126,52.40068459004965,2.3878029141350563,0.8231080287558794,B,1434,Incorrect
2,new_learn,2,349,A,31.86978226546509,70.19942159172939,1.5934891132732545,1.1026899357941489,A,446,Incorrect
2,new_learn,2,350,A,33.910669194280814,55.343289460695466,1.6955334597140408,0.8693303579760715,A,1646,Correct
2,new_learn,2,351,C,90.72137803924517,56.062553694370415,4.536068901962258,0.8806285341385872,C,711,Incorrect
2,new_learn,2,352,A,25.311606325345437,70.10384989775125,1.2655803162672719,1.1011886991356845,A,901,Correct
2,new_learn,2,353,B,53.2264580449066,79.74183751915255,2.6613229022453297,1.2525818546696028,B,2324,Correct
2,new_learn,2,354,D,40.67063245407469,30.42335006364561,2.0335316227037343,0.4778888652876981,D,1280,Correct
2,new_learn,2,355,D,28.188033940835822,17.039535415600128,1.409401697041791,0.2676563964111623,D,535,Incorrect
2,new_learn,2,356,D,37.33358223741658,4.363586600108125,1.866679111870829,0.06854305803101274,D,637,Correct
2,new_learn,2,357,B,38.297882939476054,88.27980853707993,1.9148941469738026,1.3866959898020192,B,1798,Correct
2,new_learn,2,358,A,25.596145230684535,55.43721492938394,1.2798072615342266,0.8708057357881551,A,1197,Incorrect
2,new_learn,2,359,D,73.60287443777823,24.048432556748367,3.680143721888911,0.37775189525315134,C,559,Correct
2,new_learn,2,360,D,65.7148861847916,24.041151918953503,3.2857443092395795,0.3776375312621024,C,845,Correct
2,new_learn,2,361,A,7.244983770882598,30.304363119260543,0.3622491885441299,0.47601982273593185,A,650,Incorrect
2,new_learn,2,362,B,35.55650067495385,55.46084196669203,1.7778250337476924,0.8711768684223208,A,1429,Incorrect
2,new_learn,2,363,B,54.795253813896146,62.89709070515689,2.7397626906948074,0.9879851904574589,B,2842,Correct
2,new_learn,2,364,A,7.596122223198737,33.68882349039397,0.37980611115993684,0.5291828019275248,A,1016,Correct
2,new_learn,2,365,D,46.33592532131259,10.081720207685123,2.316796266065629,0.15836329070005675,D,928,Incorrect
2,new_learn,2,366,A,7.3157061264856615,40.24132081546203,0.36578530632428313,0.6321091892230276,A,956,Correct
2,new_learn,2,367,B,50.17560773602422,48.51832699294339,2.5087803868012113,0.7621240982274917,B,1259,Incorrect
2,new_learn,2,368,B,65.24282061722474,63.76837135014077,3.2621410308612373,1.0016712348249406,B,1024,Correct
2,new_learn,2,369,C,99.9842089893873,43.55866841339315,4.9992104494693645,0.6842179634383485,C,764,Incorrect
2,new_learn,2,370,B,35.55069033341748,63.75539014445809,1.777534516670874,1.0014673265229033,B,894,Correct
2,new_learn,2,371,A,28.562202194808126,41.50516863234526,1.4281101097404063,0.6519616643069069,A,2528,Correct
2,new_learn,2,372,A,11.953829560073181,39.773902252340534,0.5976914780036591,0.6247669956027577,A,704,Incorrect
2,new_learn,2,373,C,64.51570087967465,39.33802588385221,3.225785043983733,0.6179202656171762,C,1868,Incorrect
2,new_learn,2,374,D,51.10184347183581,10.165183562297583,2.5550921735917904,0.15967433000852907,D,1079,Correct
2,new_learn,2,375,C,67.16665080928222,24.375735558134046,3.3583325404641107,0.38289315877640706,D,1259,Incorrect
2,new_learn,2,376,C,70.4661195043072,41.98003800937972,3.5233059752153597,0.659420895038438,C,661,Correct
2,new_learn,2,377,D,59.26496217808576,46.692320112758864,2.963248108904288,0.7334412492265311,C,998,Correct
2,new_learn,2,378,B,65.3494588845918,64.44715855768553,3.26747294422959,1.012333599347807,B,887,Correct
2,new_learn,2,379,B,67.88012649877628,61.879835841812195,3.394006324938814,0.9720061884298977,C,1665,Incorrect
2,new_learn,2,380,C,80.69014584988926,62.97733485140353,4.034507292494464,0.9892456625591688,B,1526,Incorrect
2,new_learn,2,381,C,90.43555094217592,30.206278919253908,4.521777547108797,0.47447911972506157,C,471,Incorrect
2,new_learn,2,382,D,32.087578215270455,21.553903429458277,1.604378910763523,0.33856792335084984,D,2936,Incorrect
2,new_learn,2,383,C,98.69997276161976,39.123629237090135,4.934998638080987,0.614552530965066,C,666,Correct
2,new_learn,2,384,B,45.657794199133725,81.32449810442245,2.2828897099566863,1.2774422290086531,B,912,Incorrect
2,new_learn,2,385,B,54.2349203279712,52.15641447148652,2.71174601639856,0.8192710427060321,B,1275,Correct
2,new_learn,2,386,D,60.736173114427686,21.6748708096542,3.0368086557213845,0.3404680745155874,B,1103,Incorrect
2,new_learn,2,387,A,17.97659020130608,61.213888718443975,0.8988295100653041,0.9615455154776333,A,780,Correct
2,new_learn,2,388,B,53.023271707000774,54.03231535020043,2.651163585350039,0.8487376248031835,B,927,Incorrect
2,new_learn,2,389,B,72.30148855928522,82.60998434686145,3.615074427964261,1.2976345996863388,B,1085,Correct
2,new_learn,2,390,D,57.92339795088232,49.42859432253201,2.896169897544116,0.7764225440046835,A,953,Incorrect
2,new_learn,2,391,D,53.404665813325,6.436871746488485,2.6702332906662503,0.10111014495433963,D,983,Correct
2,new_learn,2,392,D,57.407535422420054,16.61816245767997,2.8703767711210024,0.26103748546604544,D,560,Correct
2,new_learn,2,393,B,41.6402122022386,54.09146542333394,2.0820106101119302,0.8496667519792611,B,1468,Correct
2,new_learn,2,394,D,52.00625644896271,2.872688512293493,2.6003128224481356,0.04512408563136516,D,601,Incorrect
2,new_learn,2,395,C,91.04962611755923,65.33856255228575,4.552481305877961,1.0263357405518903,C,688,Correct
2,new_learn,2,396,B,63.34697942055581,73.59925797189914,3.1673489710277907,1.1560944407708917,C,1298,Correct
2,new_learn,2,397,A,47.93546736174778,46.96526099282839,2.396773368087389,0.7377285945449846,C,2494,Correct
2,new_learn,2,398,B,65.56382422836708,79.6180864980054,3.278191211418354,1.250637978175052,B,1292,Correct
2,new_learn,2,399,D,64.85183073956165,32.507550561831295,3.2425915369780824,0.5106274101562397,C,967,Correct
2,new_learn,2,400,C,60.92256567483709,36.002560482300595,3.0461282837418544,0.5655268976080888,D,787,Incorrect
2,new_learn,2,401,C,61.84204138025124,46.994239951577185,3.092102069012562,0.7381837949645542,C,638,Correct
2,new_learn,2,402,B,53.4304273576961,73.6828618628,2.671521367884805,1.15740768761822,B,784,Correct
2,new_learn,2,403,D,62.23502180733466,27.0129809979971,3.1117510903667327,0.4243189132743418,C,818,Incorrect
2,new_learn,2,404,C,78.42296813789058,29.476007502555824,3.921148406894529,0.463008043135935,C,742,Incorrect
2,new_learn,2,405,B,53.16899851248577,95.9103174342946,2.6584499256242884,1.5065557432752248,B,1559,Incorrect
2,new_learn,2,406,D,55.33785719556331,47.61096314320417,2.7668928597781655,0.7478712602051231,B,2503,Incorrect
2,new_learn,2,407,C,85.03250480869075,67.4216043773488,4.251625240434538,1.0590560850255821,C,1367,Incorrect
2,new_learn,2,408,D,66.32998400558836,20.472578813970465,3.316499200279418,0.32158251601003823,D,1489,Incorrect
2,new_learn,2,409,C,66.12777548128287,46.070335494012056,3.3063887740641436,0.7236711376820268,D,1750,Incorrect
2,new_learn,2,410,C,76.85608639886058,48.29305922629512,3.8428043199430295,0.7585856004235276,C,3322,Incorrect
2,new_learn,2,411,C,79.93902523402025,26.329756518491926,3.9969512617010126,0.41358684824651104,C,599,Correct
2,new_learn,2,412,B,52.693588465208315,62.659562076253636,2.634679423260416,0.9842540994795601,B,4989,Correct
2,new_learn,2,413,C,82.27759719307237,70.57879569099441,4.113879859653618,1.108649130210215,C,1602,Correct
2,new_learn,2,414,A,41.077477216100704,61.77502026244727,2.053873860805035,0.9703597491593248,B,1411,Correct
2,new_learn,2,415,C,77.02414142283726,75.92178449157488,3.851207071141863,1.1925766020307957,C,1241,Incorrect
2,new_learn,2,416,C,72.64028413188362,44.62358661876509,3.6320142065941807,0.7009456594917011,C,571,Incorrect
2,new_learn,2,417,B,39.00867153285712,54.114388797330506,1.9504335766428562,0.8500268314959766,A,1763,Incorrect
2,new_learn,2,418,D,34.92864816681732,31.774354285384028,1.7464324083408658,0.4991103899776091,A,619,Incorrect
2,new_learn,2,419,D,31.1316579846311,9.396801943442487,1.5565828992315551,0.14760461976378605,D,928,Incorrect
2,new_learn,2,420,D,53.763584559179016,5.835676562113605,2.6881792279589507,0.0916665930813112,D,816,Correct
2,new_learn,2,421,B,65.02937937147315,83.8777003319737,3.2514689685736577,1.3175478358146737,B,1670,Correct
2,new_learn,2,422,C,68.8775640107773,53.63759280737938,3.4438782005388653,0.842537337599519,C,3574,Incorrect
2,new_learn,2,423,D,60.666722395074686,8.030731910737643,3.033336119753734,0.1261464418686125,D,1143,Correct
2,new_learn,2,424,A,18.364485341629667,48.9862537834709,0.9182242670814833,0.7694742750651871,A,704,Correct
2,new_learn,2,425,A,48.399589220158305,38.25249845036275,2.419979461007915,0.6008688405655729,C,1957,Correct
2,new_learn,2,426,A,4.062074096978016,64.94648332570071,0.20310370484890078,1.0201769744625668,A,763,Correct
2,new_learn,2,427,D,28.519973444367672,21.310387624989318,1.4259986722183837,0.33474278603908636,A,2388,Incorrect
2,new_learn,2,428,A,23.89615440756779,75.85156590332659,1.1948077203783896,1.1914736110258644,B,1412,Correct
2,new_learn,2,429,C,79.45857760770734,72.50370046832478,3.9729288803853673,1.13888546374682,B,1225,Incorrect
2,new_learn,2,430,D,64.08925481501545,10.491869089060973,3.2044627407507726,0.16480589426309894,C,522,Correct
2,new_learn,2,431,C,92.16828082126456,67.76338883438858,4.608414041063228,1.064424822722319,C,811,Correct
2,new_learn,2,432,B,74.1504921520457,76.79723144767928,3.7075246076022847,1.2063280906603213,B,1807,Incorrect
2,new_learn,2,433,A,11.555204154540391,44.84680190354084,0.5777602077270195,0.7044519169858033,A,662,Correct
2,new_learn,2,434,A,15.536756318214502,47.54315335852665,0.7768378159107252,0.7468061065982013,A,588,Incorrect
2,new_learn,2,435,A,4.4992954183372795,40.82477279270802,0.22496477091686398,0.6412740314502199,A,558,Incorrect
2,new_learn,2,436,D,51.317407504973914,11.546135988078184,2.5658703752486955,0.18136627998747576,D,936,Incorrect
2,new_learn,2,437,B,57.13848531852105,78.98585511260819,2.856924265926052,1.2407069107963886,B,1145,Correct
2,new_learn,2,438,C,99.42696590803376,58.191722631342095,4.971348295401688,0.9140734415917962,C,606,Correct
2,new_learn,2,439,C,92.44143822466235,64.56638525089035,4.6220719112331174,1.0142064078652275,C,694,Incorrect
2,new_learn,2,440,C,76.70486219580766,29.98105258606726,3.835243109790383,0.4709412727563908,C,1262,Correct
2,new_learn,2,441,B,48.36106843303122,62.37988123027532,2.4180534216515612,0.9798608830241838,B,1032,Correct
2,new_learn,2,442,C,73.3534973318488,41.38709755240216,3.6676748665924404,0.6501070081201537,C,1002,Correct
2,new_learn,2,443,A,13.772858504143345,44.503991812676354,0.6886429252071673,0.6990670686706217,A,776,Correct
2,new_learn,2,444,B,32.25658196455582,88.79251893875575,1.612829098227791,1.394749625958638,B,1119,Incorrect
2,new_learn,2,445,D,72.7608563543831,22.44267413413649,3.638042817719155,0.3525287009335643,D,769,Correct
2,new_learn,2,446,D,55.430980402558845,49.58890542369048,2.771549020127942,0.7789407048931253,C,715,Incorrect
2,new_learn,2,447,A,11.970536875842843,36.97318388387269,0.598526843792142,0.5807734143469949,A,913,Correct
2,new_learn,2,448,A,22.195580106923366,74.10236951422586,1.1097790053461682,1.163997298397441,B,7948,Incorrect
2,new_learn,2,449,D,55.14242540573157,20.443297898829435,2.7571212702865786,0.321122572470551,C,772,Incorrect
2,new_learn,2,450,A,28.262982816192434,56.684853942164736,1.4131491408096217,0.8904036035725758,100,1125,Incorrect
2,new_learn,2,451,D,39.604170458142704,20.50044374335969,1.9802085229071351,0.3220202172973482,C,752,Correct
2,new_learn,2,452,C,78.44298969095452,66.69047420811668,3.9221494845477256,1.0475715191831947,C,725,Correct
2,new_learn,2,453,C,88.02805770366479,26.5865612620092,4.40140288518324,0.4176207277247154,C,581,Correct
2,new_learn,2,454,B,40.27521199489533,80.12602324688845,2.0137605997447663,1.2586166299689487,B,717,Correct
2,new_learn,2,455,D,61.04042303887215,4.453157920648774,3.052021151943608,0.06995004104392694,D,785,Correct
2,new_learn,2,456,A,35.576277363911586,44.13603410420496,1.7788138681955792,0.6932872025017943,A,1888,Incorrect
2,new_learn,2,457,B,64.51077556700123,66.14478580962063,3.225538778350062,1.0389998658638728,B,768,Correct
2,new_learn,2,458,D,41.454754161694815,0.9303984956639866,2.0727377080847407,0.014614665394444875,D,839,Correct
2,new_learn,2,459,D,55.73582999671347,14.327752483430473,2.7867914998356738,0.22505980972199044,D,838,Correct
2,new_learn,2,460,C,72.95434654662876,27.4237324440875,3.6477173273314376,0.43077098190178675,C,493,Correct
2,new_learn,2,461,A,1.3452316189706472,43.512263189503486,0.06726158094853237,0.6834890318860487,A,845,Incorrect
2,new_learn,2,462,D,27.85649132685116,25.78664002872084,1.392824566342558,0.4050555943749694,A,3133,Incorrect
2,new_learn,2,463,A,17.73531753637416,52.60754239424357,0.8867658768187081,0.826357343545846,A,1748,Incorrect
2,new_learn,2,464,C,71.06881148650267,72.94593050693841,3.5534405743251334,1.1458319969493465,B,726,Correct
2,new_learn,2,465,C,83.02877523800376,58.254046715126634,4.151438761900188,0.9150524260105922,B,973,Incorrect
2,new_learn,2,466,A,34.4206904008917,68.36717691954857,1.7210345200445851,1.0739091037856372,B,865,Correct
2,new_learn,2,467,A,27.43998392365637,25.088768924735575,1.3719991961828186,0.3940934607078059,D,1096,Incorrect
2,new_learn,2,468,D,59.18462324847801,48.37081600866693,2.9592311624239005,0.759807001104858,A,1029,Incorrect
2,new_learn,2,469,A,24.984317416964664,60.46076741920147,1.2492158708482333,0.9497155137728222,B,2453,Incorrect
2,new_learn,2,470,C,84.34170843505333,54.44541035841841,4.2170854217526665,0.8552265060184444,C,632,Correct
2,new_learn,2,471,D,46.94936149824644,32.775566584586926,2.3474680749123222,0.514837395996907,B,4112,Correct
2,new_learn,2,472,B,58.883948018153994,89.20623877134017,2.9441974009076994,1.4012483218920964,B,748,Correct
2,new_learn,2,473,C,59.578791266972296,69.36637865400739,2.9789395633486144,1.0896045279277873,B,1041,Correct
2,new_learn,2,474,B,32.112882458332166,60.16725265624839,1.6056441229166083,0.9451049946577544,A,819,Incorrect
2,new_learn,2,475,A,37.48742899872255,30.57225213432315,1.8743714499361275,0.48022781354442245,D,1973,Correct
2,new_learn,2,476,B,28.027088652968715,61.81146477085118,1.4013544326484355,0.9709322181586518,A,717,Incorrect
2,new_learn,2,477,A,18.37877549464924,27.5542484014,0.9189387747324619,0.4328211217651327,A,646,Incorrect
2,new_learn,2,478,A,16.04179656023942,63.68010448353597,0.8020898280119709,1.000284742126535,A,680,Incorrect
2,new_learn,2,479,D,43.04354529726551,30.293799669335677,2.1521772648632753,0.4758538924525294,B,887,Correct
2,new_learn,2,480,B,61.136889062716484,69.65655861063811,3.0568444531358243,1.0941626640276378,B,1325,Correct
2,new_learn,2,481,B,51.209272428953724,63.17929307361535,2.5604636214476866,0.9924180148953324,B,789,Incorrect
2,new_learn,2,482,B,44.27937197859073,59.13600920148729,2.2139685989295366,0.9289062603500543,A,624,Correct
2,new_learn,2,483,A,6.266979869399979,60.13113656049127,0.31334899346999895,0.9445376843522199,A,510,Incorrect
2,new_learn,2,484,B,58.8377518981557,63.46259867112127,2.941887594907785,0.9968681688145599,B,3587,Incorrect
2,new_learn,2,485,B,46.12989801755406,59.37328065744045,2.3064949008777034,0.9326333116646994,B,1034,Correct
2,new_learn,2,486,A,19.41987175980779,58.03333938064974,0.9709935879903895,0.9115855633076624,A,833,Incorrect
2,new_learn,2,487,A,23.763550773736156,29.79270215377975,1.1881775386868079,0.4679826710845164,B,710,Correct
2,new_learn,2,488,C,51.69802456216061,60.61415882696288,2.584901228108031,0.9521249803715576,B,921,Incorrect
2,new_learn,2,489,A,4.999179949064217,52.24461901790244,0.24995899745321087,0.8206565564811994,D,1134,Incorrect
2,new_learn,2,490,C,84.43132603060683,71.32992311007521,4.221566301530341,1.1204478121186858,C,840,Correct
2,new_learn,2,491,A,42.42311625010946,36.06106746148549,2.1211558125054726,0.5664459230880439,D,1742,Correct
2,new_learn,2,492,A,35.462423127006545,39.200821739211506,1.7731211563503273,0.6157650679529496,D,3552,Incorrect
2,new_learn,2,493,D,24.85080548265996,16.99666408404985,1.242540274132998,0.2669829751099225,D,837,Correct
2,new_learn,2,494,C,87.28737202086619,31.349073945545737,4.364368601043309,0.49243010202084836,C,596,Incorrect
2,new_learn,2,495,C,86.12115125590968,54.29046913972349,4.306057562795484,0.8527926950464936,C,607,Correct
2,new_learn,2,496,C,60.949807033558294,47.66540806754861,3.0474903516779146,0.7487264790768519,C,2857,Incorrect
2,new_learn,2,497,D,69.30096179219905,43.318578047809666,3.4650480896099523,0.6804466327947747,C,573,Incorrect
2,new_learn,2,498,A,36.684292720095456,28.060768585232086,1.8342146360047729,0.440777522207242,D,1071,Incorrect
2,new_learn,2,499,C,50.18686920951197,49.10556945100937,2.5093434604755984,0.7713484811881721,C,693,Correct
2,new_learn,2,500,A,31.790454555212527,45.415872772385576,1.5895227277606265,0.7133908612904761,C,890,Correct
2,new_learn,2,501,C,70.6382610872472,40.97468664184517,3.5319130543623602,0.643628872685823,C,622,Correct
2,new_learn,2,502,A,11.32260606887406,30.10673740199192,0.566130303443703,0.4729155252282743,A,824,Correct
2,new_learn,2,503,D,40.21922028739944,39.90815666599033,2.010961014369972,0.6268758590009288,B,835,Correct
2,new_learn,2,504,C,74.36531906539359,25.003116385575066,3.7182659532696793,0.39274803376886597,C,726,Correct
2,new_learn,2,505,B,40.927134196415096,54.6305025756901,2.046356709820755,0.8581339277685315,B,4247,Correct
2,new_learn,2,506,B,52.35291478853936,65.15995192341056,2.617645739426968,1.0235301313542535,B,893,Correct
2,new_learn,2,507,B,39.237341029506844,88.24498136757252,1.961867051475342,1.38614892590267,B,1131,Correct
2,new_learn,2,508,C,61.294886652694395,59.96804737083256,3.0647443326347195,0.9419758853516613,B,851,Correct
2,new_learn,2,509,A,38.506945248995876,70.84466628416207,1.9253472624497936,1.1128254157217203,A,1684,Correct
2,new_learn,2,510,B,58.52809175315073,98.82899411851515,2.926404587657537,1.5524022094219805,B,719,Correct
2,new_learn,2,511,B,33.659489538255485,75.05710322252037,1.6829744769127744,1.1789942204180037,A,1595,Correct
2,new_learn,2,512,C,100.81479176195194,53.94387725125964,5.040739588097597,0.8473484423935344,C,662,Correct
2,new_learn,2,513,A,24.529585358746743,33.225981608061616,1.226479267937337,0.5219124986409798,A,812,Incorrect
2,new_learn,2,514,D,68.58178032309546,35.98894424361838,3.429089016154773,0.5653130142310209,C,1457,Incorrect
2,new_learn,2,515,C,68.59290716547295,29.07810765059879,3.429645358273648,0.4567578468770716,C,578,Correct
2,new_learn,2,516,C,81.76226186167582,46.777243695147746,4.088113093083791,0.7347752257392782,C,617,Incorrect
2,new_learn,2,517,D,55.93638227916125,14.084540805605087,2.7968191139580627,0.22123944962037306,D,1061,Correct
2,new_learn,2,518,C,67.10186532004899,39.683737533431895,3.3550932660024495,0.6233506915100759,D,5031,Correct
2,new_learn,2,519,A,15.820567424783093,60.28182436665774,0.7910283712391546,0.9469046828764107,A,742,Incorrect
2,new_learn,2,520,B,47.913272081582015,86.35338925981858,2.395663604079101,1.3564358665561291,B,1469,Correct
2,new_learn,2,521,B,49.159396603095395,101.50666253398913,2.4579698301547697,1.5944629265359926,B,683,Correct
2,new_learn,2,522,D,56.62352848685167,37.72266704802881,2.8311764243425834,0.5925462683595054,B,2725,Correct
2,new_learn,2,523,C,85.92295262133031,65.18329971047422,4.296147631066515,1.0238968775358375,B,1667,Correct
2,new_learn,2,524,B,60.67053479899998,59.843404120916816,3.033526739949999,0.9400179937603871,C,1732,Incorrect
2,new_learn,2,525,D,45.372786028104386,6.509273664527619,2.2686393014052193,0.10224743162342739,D,589,Incorrect
2,new_learn,2,526,D,51.493396518715365,11.527558356254039,2.574669825935768,0.18107446322917656,D,795,Correct
2,new_learn,2,527,A,45.37450738664511,34.670412138855006,2.2687253693322553,0.5446015603617863,D,2935,Incorrect
2,new_learn,2,528,D,71.69193999853093,32.09168701889733,3.5845969999265463,0.5040950408993539,C,694,Incorrect
2,new_learn,2,529,A,35.86865263140653,34.912330677448594,1.7934326315703266,0.5484016078798504,A,3583,Correct
2,new_learn,2,530,B,56.52908364486454,66.10573277750474,2.826454182243227,1.0383864222698944,B,1158,Incorrect
2,new_learn,2,531,D,66.34345279511447,39.0778682750245,3.3171726397557233,0.6138337194538331,C,771,Correct
2,new_learn,2,532,D,44.7285594530303,8.00221898311414,2.236427972651515,0.12569856184884085,D,694,Incorrect
2,new_learn,2,533,D,35.21403587044337,21.543329795649836,1.7607017935221683,0.3384018330993781,C,1179,Incorrect
2,new_learn,2,534,A,11.062094390893003,38.20385769442065,0.5531047195446501,0.6001047933579091,A,749,Incorrect
2,new_learn,2,535,D,59.324152926583366,11.743577405228384,2.9662076463291682,0.18446768251564286,D,1263,Correct
2,new_learn,2,536,A,29.352697857994006,48.49798491343023,1.4676348928997003,0.7618045655897052,A,1428,Incorrect
2,new_learn,2,537,B,54.14548580392497,89.38764347245403,2.7072742901962488,1.404097820273826,B,694,Correct
2,new_learn,2,538,A,40.87586800389293,65.82892839191905,2.0437934001946467,1.034038389148707,B,1557,Incorrect
2,new_learn,2,539,D,35.92685070338109,3.82325728110807,1.7963425351690545,0.06005558493556399,D,1048,Incorrect
2,new_learn,2,540,B,27.41738210444437,66.43545246807616,1.3708691052222184,1.0435656470581096,A,2337,Correct
2,new_learn,2,541,C,71.19099834028458,51.557652605358776,3.559549917014229,0.8098657133066489,C,765,Incorrect
2,new_learn,2,542,A,24.78422251283996,68.33429772984212,1.239211125641998,1.0733926386814485,B,1438,Incorrect
2,new_learn,2,543,D,57.3007387618325,34.04943779084469,2.8650369380916247,0.5348473181129018,C,1070,Correct
2,new_learn,2,544,D,30.046882138312768,10.170538811735938,1.5023441069156382,0.15975845006999745,A,5456,Correct
2,new_learn,2,545,C,84.55619559883955,26.32334241677906,4.227809779941977,0.41348609577240847,C,868,Incorrect
2,new_learn,2,546,C,53.45625321126104,49.27844553495136,2.672812660563052,0.7740640123646397,B,1122,Correct
2,new_learn,2,547,D,59.39974377344128,36.678461259015656,2.969987188672064,0.576143922181507,B,911,Incorrect
2,new_learn,2,548,D,46.35880973482638,10.203999753274797,2.317940486741319,0.1602840533106008,D,832,Correct
2,new_learn,2,549,C,63.69503427088341,58.7012461344051,3.1847517135441707,0.9220770180620664,B,1070,Incorrect
2,new_learn,2,550,C,55.496539606214945,41.511739845673965,2.7748269803107473,0.6520648846845002,B,2449,Incorrect
2,new_learn,2,551,C,97.76344705977638,63.31500404146793,4.888172352988819,0.9945497577934185,C,916,Correct
2,new_learn,2,552,B,31.897998871450355,55.77259850583395,1.5948999435725175,0.876073928687705,A,1929,Incorrect
2,new_learn,2,553,D,34.67053900473507,12.325907054302286,1.7335269502367536,0.19361489525313336,C,508,Correct
2,new_learn,2,554,B,37.785449230877376,64.59879714698988,1.8892724615438687,1.0147155327386035,B,1054,Correct
2,new_learn,2,555,B,43.65231918880763,50.4064034938134,2.1826159594403816,0.7917819345502354,C,653,Correct
2,new_learn,2,556,D,42.45125862600529,28.223514312471938,2.1225629313002643,0.4433339261127411,C,489,Correct
2,new_learn,2,557,D,37.40891731106708,43.738974859402404,1.870445865553354,0.6870502104692362,C,537,Correct
2,new_learn,2,558,D,33.49599233057998,15.145276182486477,1.6747996165289991,0.2379014419574399,C,1132,Correct
2,new_learn,2,559,C,68.28158485977785,51.95087337394359,3.4140792429888926,0.8160424106957738,C,634,Correct
2,new_learn,2,560,C,81.55452233436883,57.91407764989228,4.077726116718441,0.909712204421652,C,1136,Correct
2,new_learn,2,561,B,65.742770164416,83.5433489496304,3.2871385082208002,1.312295856582237,B,546,Correct
2,new_learn,2,562,D,31.43336477510503,15.293063020531175,1.5716682387552516,0.24022287218093233,D,1212,Incorrect
2,new_learn,2,563,C,88.27357686194377,64.42160349935423,4.4136788430971885,1.011932181430229,C,644,Correct
2,new_learn,2,564,A,33.335554488526526,56.121826892726084,1.6667777244263262,0.8815595953611317,A,1356,Incorrect
2,new_learn,2,565,D,66.11569562421619,11.971286942329648,3.3057847812108094,0.18804453556019116,D,1180,Correct
2,new_learn,2,566,D,54.07943543856444,12.49701598246886,2.703971771928222,0.196302668011592,D,691,Correct
2,new_learn,2,567,D,46.89429834223863,19.717516723040802,2.3447149171119315,0.3097220284206944,C,836,Correct
2,new_learn,2,568,B,40.41692142271421,61.30514369773416,2.0208460711357104,0.9629789453403412,B,986,Correct
2,new_learn,2,569,A,41.8213719611524,50.84677072305965,2.0910685980576202,0.7986992068116439,B,1136,Incorrect
2,new_learn,2,570,B,68.77917389234479,70.02798353232912,3.4389586946172392,1.0999969930543607,B,1328,Correct
2,new_learn,2,571,A,40.462290203457485,69.48561996144488,2.0231145101728742,1.0914775660050375,A,2460,Incorrect
2,new_learn,2,572,D,56.00572918235325,37.04650655894808,2.800286459117663,0.5819251642337868,B,1430,Correct
2,new_learn,2,573,A,33.01702114456515,52.716853338646004,1.6508510572282575,0.8280743958453043,A,876,Correct
2,new_learn,2,574,A,19.134572946058146,68.30995555767285,0.9567286473029073,1.0730102727351514,A,1585,Incorrect
2,new_learn,2,575,B,52.71016016853733,85.35334904169629,2.635508008426866,1.3407272715433924,B,1373,Correct
2,new_learn,2,576,C,63.71447997254806,30.685854424222185,3.1857239986274033,0.48201227414131137,C,844,Correct
2,new_learn,2,577,B,61.76205469267827,59.222319271064265,3.0881027346339134,0.9302620157526237,C,868,Incorrect
2,new_learn,2,578,C,58.78687506784028,48.08816482148799,2.9393437533920137,0.7553671266390091,C,634,Incorrect
2,new_learn,2,579,A,18.8909806659913,43.75757140422088,0.944549033299565,0.6873423243121557,A,697,Correct
2,new_learn,2,580,B,59.34006243731311,97.05737360370311,2.9670031218656554,1.5245736594505679,B,767,Correct
2,new_learn,2,581,A,16.425494066074805,39.851474849898295,0.8212747033037402,0.6259855031157944,D,846,Incorrect
2,new_learn,2,582,A,24.097907590724297,61.562685318322345,1.204895379536215,0.9670243996565083,A,704,Correct
2,new_learn,2,583,B,36.997804548273976,57.46931319711291,1.8498902274136986,0.9027258607345043,C,914,Incorrect
2,new_learn,2,584,A,6.076294799695987,44.47367403102251,0.30381473998479935,0.6985908380700374,A,544,Correct
2,new_learn,2,585,D,50.48547086662994,16.66634534431892,2.524273543331497,0.2617943404795139,C,803,Correct
2,new_learn,2,586,D,41.00151231307775,6.015227131979799,2.050075615653887,0.0944869668375087,D,905,Incorrect
2,new_learn,2,587,D,68.21153383940344,16.82485412730343,3.410576691970172,0.26428419062028186,C,703,Incorrect
2,new_learn,2,588,D,72.38520420811318,10.924554002360555,3.619260210405659,0.17160249298780447,C,2227,Correct
2,new_learn,2,589,B,46.34720769583463,71.44898260173854,2.3173603847917317,1.1223179942404338,B,739,Correct
2,new_learn,2,590,B,62.01248784387508,86.43067272999114,3.1006243921937537,1.3576498324668191,B,1309,Incorrect
2,new_learn,2,591,D,68.85076495138536,27.585679108996302,3.442538247569268,0.43331483416554106,C,806,Incorrect
2,new_learn,2,592,B,33.46080015913391,68.96683344993251,1.6730400079566954,1.083328486538294,C,832,Incorrect
2,new_learn,2,593,D,43.75282259772332,-0.24515172685862296,2.187641129886166,-0.003850834320569508,D,709,Correct
2,new_learn,2,594,D,47.02569218594324,2.9863254888167248,2.3512846092971618,0.04690909108447286,D,618,Correct
2,new_learn,2,595,B,43.71774049136503,81.47841226240016,2.185887024568251,1.279859906948584,B,2940,Incorrect
2,new_learn,2,596,D,44.68720153821104,23.496935573818313,2.2343600769105523,0.3690890009029013,B,1621,Incorrect
2,new_learn,2,597,C,68.14982775715958,26.216881777921962,3.4074913878579793,0.41181381596775873,C,668,Correct
2,new_learn,2,598,C,71.22200920627529,27.902481877953214,3.5611004603137646,0.4382911604235007,C,702,Correct
2,new_learn,2,599,C,63.05605048804743,62.30286967063821,3.1528025244023716,0.9786511882741967,B,1271,Correct
2,new_learn,2,600,C,30.88689077164526,68.8114824654351,1.544344538582263,1.0808882389801688,A,1465,Incorrect
2,new_learn,2,601,C,24.21767358619625,81.16184214053382,1.2108836793098123,1.2748872351025775,A,2499,Incorrect
2,new_learn,2,602,A,45.283523290996285,-0.12618805661204036,2.2641761645498146,-0.0019821573581157944,D,664,Incorrect
2,new_learn,2,603,C,27.38493999147003,63.335385921844576,1.3692469995735015,0.9948699156217067,B,1130,Incorrect
2,new_learn,2,604,C,35.30050892852298,64.11306851074279,1.765025446426149,1.0070857251622432,B,1044,Incorrect
2,new_learn,2,605,B,26.20486932314493,39.88917688780345,1.3102434661572466,0.6265777253423356,A,467,Incorrect
2,new_learn,2,606,D,83.47818088313554,40.258863641485505,4.173909044156777,0.6323847512898204,C,582,Incorrect
2,new_learn,2,607,B,25.50837434765222,30.819753476318716,1.275418717382611,0.4841155555332568,B,3931,Correct
2,new_learn,2,608,B,7.089995058422602,46.56015223438023,0.3544997529211301,0.7313651610477567,D,1333,Incorrect
2,new_learn,2,609,D,75.98047848723444,44.481871694903724,3.799023924361722,0.6987196066731665,C,581,Incorrect
2,new_learn,2,610,D,65.74753009423912,34.573771095908974,3.287376504711956,0.5430835264090138,D,566,Correct
2,new_learn,2,611,C,39.13020854872397,66.34470658154648,1.9565104274361986,1.042140214005784,C,847,Correct
2,new_learn,2,612,B,23.367111326077154,50.303586796362715,1.1683555663038576,0.7901668936433481,C,670,Incorrect
2,new_learn,2,613,B,6.242937796412015,42.14398836827266,0.31214688982060074,0.6619962212536954,B,839,Correct
2,new_learn,2,614,C,44.04388485247517,99.65020718324024,2.202194242623759,1.565301794077842,A,780,Incorrect
2,new_learn,2,615,B,23.390819871428175,36.04176218013015,1.1695409935714087,0.5661426764376367,D,778,Incorrect
2,new_learn,2,616,B,2.8608438173799122,59.87033101934648,0.1430421908689956,0.9404409604918401,B,905,Correct
2,new_learn,2,617,B,35.37638158954146,41.226719414887484,1.768819079477073,0.6475877942270911,D,1648,Incorrect
2,new_learn,2,618,A,65.4911220326085,33.381182573043695,3.274556101630425,0.5243503896980685,C,597,Incorrect
2,new_learn,2,619,A,49.143654504830764,35.03348584406043,2.457182725241538,0.5503047087867112,A,744,Correct
2,new_learn,2,620,D,71.57054146016989,28.137557042571714,3.578527073008495,0.44198371247453516,A,731,Incorrect
2,new_learn,2,621,D,97.3645275897452,40.82989395603844,4.868226379487259,0.6413544744957033,C,780,Incorrect
2,new_learn,2,622,D,78.75716250240096,28.273068772520027,3.937858125120048,0.44411232575093956,D,910,Correct
2,new_learn,2,623,C,40.853663606297914,86.96298907360693,2.0426831803148957,1.3660114380392652,C,1314,Correct
2,new_learn,2,624,A,58.93643049184495,5.7094891969737205,2.9468215245922478,0.08968444658481464,A,1053,Correct
2,new_learn,2,625,D,67.23767472484563,49.37780486520826,3.361883736242282,0.7756247450746432,D,1739,Correct
2,new_learn,2,626,B,24.58143620737492,43.88987931355036,1.2290718103687461,0.6894206120919621,B,1385,Correct
2,new_learn,2,627,A,57.35571271661785,12.583019216620535,2.8677856358308924,0.19765360365457135,A,1608,Correct
2,new_learn,2,628,D,89.32206972976698,30.986009811441747,4.4661034864883495,0.4867271039384332,D,990,Correct
2,new_learn,2,629,B,18.160179262288025,71.60289330836697,0.9080089631144013,1.1247356179666974,B,826,Correct
2,new_learn,2,630,D,77.86955664835291,57.43492249752544,3.8934778324176453,0.9021856528886253,D,1762,Correct
2,new_learn,2,631,C,30.084341579182478,67.49375219402238,1.5042170789591238,1.0601893802797533,C,1845,Correct
2,new_learn,2,632,C,70.5480270639902,84.47642070739488,3.5274013531995103,1.3269525134795621,C,2224,Correct
2,new_learn,2,633,B,14.231840211367269,60.18330678920886,0.7115920105683634,0.9453571723885964,B,1142,Correct
2,new_learn,2,634,D,76.30523249172174,51.21563244939067,3.8152616245860873,0.8044932732598037,D,4116,Correct
2,new_learn,2,635,B,44.12849010903577,58.771131157216246,2.2064245054517886,0.9231747694333637,C,3391,Incorrect
2,new_learn,2,636,C,49.469273604442684,97.18072694428282,2.4734636802221344,1.526511289193373,C,610,Correct
2,new_learn,2,637,B,31.592439680579577,66.81899084402738,1.579621984028979,1.0495902537794004,B,514,Correct
2,new_learn,2,638,C,52.68031095462605,100.62692517070006,2.6340155477313028,1.5806440443480057,C,6618,Correct
2,new_learn,2,639,B,19.37366352902332,48.90407601048477,0.9686831764511661,0.7681834296256789,B,3706,Correct
2,new_learn,2,640,C,47.75363665090526,78.03964941761843,2.387681832545263,1.2258439464955653,C,1886,Correct
2,new_learn,2,641,C,26.79616369293157,86.94438898421797,1.3398081846465786,1.3657192685183626,B,1623,Incorrect
2,new_learn,2,642,D,71.94560574143838,47.820753373815826,3.597280287071919,0.7511666374415455,D,797,Correct
2,new_learn,2,643,D,81.17319659207351,70.1063941098002,4.058659829603675,1.1012286635250952,C,928,Incorrect
2,new_learn,2,644,C,27.460166810677187,66.1646007782595,1.3730083405338593,1.0393111186634079,B,956,Incorrect
2,new_learn,2,645,D,48.75613114578111,48.97697010608922,2.437806557289056,0.769328447401884,C,2155,Incorrect
2,new_learn,2,646,B,48.17857597409106,42.25563578719681,2.408928798704553,0.6637499748091173,C,1889,Incorrect
2,new_learn,2,647,A,27.094175062613104,31.01352880820339,1.354708753130655,0.4871593713287359,A,754,Correct
2,new_learn,2,648,C,55.173509596832005,54.634354800569206,2.7586754798416,0.8581944383754322,C,978,Correct
2,new_learn,2,649,A,57.745734825150954,28.503426853157528,2.887286741257548,0.44773078202006866,A,759,Correct
2,new_learn,2,650,A,74.11184282601499,21.07625175735881,3.7055921413007495,0.331064988430637,C,602,Incorrect
2,new_learn,2,651,C,57.436436047826135,66.90765018611224,2.871821802391307,1.0509829114682299,C,797,Correct
2,new_learn,2,652,A,69.43343187598298,14.90900426578983,3.471671593799149,0.23419009136872113,A,1165,Correct
2,new_learn,2,653,B,23.183869576695216,58.6717157878125,1.1591934788347609,0.9216131564625003,C,2104,Incorrect
2,new_learn,2,654,C,36.447926217658704,96.39604593046039,1.8223963108829353,1.5141855486511928,C,2686,Correct
2,new_learn,2,655,C,46.39254229844884,75.00041654610752,2.319627114922442,1.1781037881871286,C,1119,Correct
2,new_learn,2,656,D,98.92747846970545,49.240540464524415,4.946373923485272,0.7734686009107041,D,609,Correct
2,new_learn,2,657,A,53.93109435250915,27.428330472381386,2.6965547176254576,0.4308432075613321,D,651,Incorrect
2,new_learn,2,658,B,8.383700473796793,66.36766461911972,0.4191850236898397,1.0425008380166887,B,937,Correct
2,new_learn,2,659,B,4.369852985238733,33.29296214330891,0.21849264926193665,0.5229646264283119,B,1018,Correct
2,new_learn,2,660,C,32.252283472053556,90.48073497683295,1.6126141736026778,1.4212680614731172,C,2386,Correct
2,new_learn,2,661,B,4.945019867082621,59.16221826090571,0.24725099335413106,0.9293179512926865,B,1001,Correct
2,new_learn,2,662,D,93.82843545648745,42.78582896862288,4.691421772824373,0.672078229827875,D,688,Correct
2,new_learn,2,663,A,29.499626285666118,12.861331909905076,1.474981314283306,0.20202532921768884,A,2601,Correct
2,new_learn,2,664,C,29.18826981583741,69.31158621664581,1.4594134907918703,1.08874385033435,C,1032,Correct
2,new_learn,2,665,A,35.39950537150531,13.82500799553696,1.7699752685752657,0.21716271777299534,A,944,Correct
2,new_learn,2,666,D,87.66818341841989,29.73772880955352,4.383409170920994,0.46711915181269437,D,779,Correct
2,new_learn,2,667,B,39.3091495249204,66.31987060079959,1.96545747624602,1.0417500913324884,C,1082,Incorrect
2,new_learn,2,668,D,76.9179736215567,76.03147165795066,3.845898681077835,1.194299564011192,C,952,Incorrect
2,new_learn,2,669,C,52.51552520819869,77.06888005766513,2.625776260409934,1.2105951370477683,B,543,Incorrect
2,new_learn,2,670,D,75.8882652324493,47.283584758248324,3.7944132616224646,0.7427288125595163,C,457,Incorrect
2,new_learn,2,671,B,31.439319928191807,34.96648642169818,1.5719659964095904,0.5492522843212713,C,1590,Incorrect
2,new_learn,2,672,D,83.82172423495904,68.68984949807285,4.191086211747952,1.078977632796671,C,903,Incorrect
2,new_learn,2,673,C,62.36148797635862,62.78364964584382,3.1180743988179307,0.9862032624646919,C,1180,Correct
2,new_learn,2,674,D,85.04484769064699,64.92525779201428,4.252242384532349,1.0198435645590775,D,868,Correct
2,new_learn,2,675,A,73.69410752611981,32.09605274238774,3.6847053763059905,0.5041636175235793,D,1233,Incorrect
2,new_learn,2,676,B,9.993020598918042,27.856910330719764,0.4996510299459021,0.43757532423349416,A,897,Incorrect
2,new_learn,2,677,B,18.859579345396014,57.316010768813484,0.9429789672698007,0.9003177918218894,B,1185,Correct
2,new_learn,2,678,A,48.35933839536598,5.473847038658867,2.4179669197682987,0.0859829882176247,A,863,Correct
2,new_learn,2,679,D,81.17064203250386,43.57915931594893,4.058532101625193,0.6845398337830216,D,1736,Correct
2,new_learn,2,680,C,42.39230000309195,52.96458333565536,2.1196150001545973,0.8319657295386964,C,956,Correct
2,new_learn,2,681,A,48.08111725662099,36.622026347708086,2.4040558628310493,0.5752574446676578,C,1502,Incorrect
2,new_learn,2,682,D,54.47165573642337,44.90415572708217,2.7235827868211686,0.705352828739267,B,518,Incorrect
2,new_learn,2,683,A,51.730073623998116,21.76104119161564,2.586503681199906,0.34182163571022284,C,524,Incorrect
2,new_learn,2,684,D,77.78288988184285,64.95374741491575,3.8891444940921422,1.0202910785091317,C,801,Incorrect
2,new_learn,2,685,D,90.77378324624087,63.01796227952456,4.538689162312044,0.9898838367077654,D,401,Correct
2,new_learn,2,686,A,44.26083116123107,-0.1813790368725421,2.2130415580615534,-0.0028490952487698518,A,1096,Correct
2,new_learn,2,687,D,79.62200035537458,68.95287363098095,3.981100017768729,1.0831092062149754,D,1370,Correct
2,new_learn,2,688,D,51.11385741266909,55.52738926275619,2.5556928706334547,0.872222190904478,C,1027,Incorrect
2,new_learn,2,689,D,73.05814630252635,54.86614332955527,3.6529073151263174,0.8618353640746774,C,704,Incorrect
2,new_learn,2,690,A,41.225432661336654,28.26171645664921,2.0612716330668324,0.44393400399023464,B,1466,Incorrect
2,new_learn,2,691,A,43.50493604853867,24.41627638557473,2.1752468024269334,0.38352997260469757,B,720,Incorrect
2,new_learn,2,692,B,40.32955451161924,32.77229351778519,2.016477725580962,0.5147859827838117,C,570,Incorrect
2,new_learn,2,693,A,44.51591124746887,41.13483300701559,2.2257955623734436,0.6461444459074155,B,2546,Incorrect
2,new_learn,2,694,A,55.78634848348561,31.861548774155423,2.78931742417428,0.5004800378043978,B,956,Incorrect
2,new_learn,2,695,A,34.792348581419354,29.45007011534705,1.7396174290709678,0.462600619610393,A,522,Correct
2,new_learn,2,696,D,72.22509837004391,53.59660115038399,3.6112549185021954,0.8418934421571429,C,780,Incorrect
2,new_learn,2,697,A,41.081820435745655,29.13350525157921,2.0540910217872828,0.4576280303584045,C,3988,Incorrect
2,new_learn,2,698,D,69.30268669872336,53.30326853662098,3.4651343349361685,0.8372857842348621,D,1312,Correct
2,new_learn,2,699,B,44.183448464272885,51.901998651782975,2.2091724232136443,0.8152746883553437,D,889,Incorrect
2,new_learn,2,700,C,53.27466299565693,97.63121859266985,2.6637331497828467,1.5335875954587541,C,952,Correct
2,new_learn,2,701,B,6.477527226311086,55.4310126042592,0.32387636131555425,0.8707083098929197,B,752,Correct
2,new_learn,2,702,D,99.52894790560252,45.722718872400506,4.976447395280126,0.718210788558424,D,679,Correct
2,new_learn,2,703,B,48.75886693485015,43.33800774886272,2.4379433467425073,0.6807518338252233,D,2236,Incorrect
2,new_learn,2,704,C,58.039203342095284,80.21062504985281,2.9019601671047646,1.259945551982315,B,1559,Incorrect
2,new_learn,2,705,B,42.63966915682353,64.66973740600646,2.1319834578411765,1.0158298597214548,C,2223,Incorrect
2,new_learn,2,706,B,10.225301492158664,31.69062828794562,0.5112650746079332,0.49779522508527424,B,1453,Correct
2,new_learn,2,707,A,40.16393765542458,14.017079798168686,2.008196882771229,0.22017977459354318,A,756,Correct
2,new_learn,2,708,B,25.416844728785904,73.03742359574858,1.2708422364392953,1.1472691670276478,B,1054,Correct
2,new_learn,2,709,C,41.0335820319425,55.66263878747449,2.051679101597125,0.8743466854707606,C,986,Correct
2,new_learn,2,710,A,40.5596923946235,47.37372861727343,2.027984619731175,0.7441447889859137,C,737,Incorrect
2,new_learn,2,711,D,51.23782366069606,42.770652432401775,2.561891183034803,0.6718398373543792,D,644,Correct
2,new_learn,2,712,B,10.676282711354357,41.430339673407246,0.533814135567718,0.6507862537685297,A,633,Incorrect
2,new_learn,2,713,D,83.89489638777063,24.982915706406168,4.194744819388531,0.3924307222424934,D,737,Correct
2,new_learn,2,714,B,21.24266788183651,39.91723911314589,1.0621333940918256,0.6270185257472314,B,1569,Correct
2,new_learn,2,715,C,75.55700963750726,69.54839893562222,3.777850481875363,1.0924636958254146,C,800,Correct
2,new_learn,2,716,D,68.27796296998503,26.443301211175637,3.413898148499251,0.41537040410845727,C,847,Incorrect
2,new_learn,2,717,B,33.98198458780774,72.03844747445267,1.699099229390387,1.1315772868087737,C,585,Incorrect
2,new_learn,2,718,A,55.55031406975691,3.1688474376122784,2.777515703487845,0.04977613915174787,D,589,Incorrect
2,new_learn,2,719,C,46.078051103828244,60.69909186947131,2.3039025551914123,0.953459105483515,C,2355,Correct
2,new_learn,2,720,C,29.000688057827304,75.80510808535446,1.450034402891365,1.1907438533276489,C,1428,Correct
2,new_learn,2,721,A,58.235371108299915,25.895441601065365,2.9117685554149957,0.4067646454768523,D,1351,Incorrect
2,new_learn,2,722,D,91.89197753652584,41.91230930093556,4.594598876826292,0.6583570149740117,D,699,Correct
2,new_learn,2,723,B,23.970156196072942,72.97786850232211,1.198507809803647,1.1463336778076854,B,909,Correct
2,new_learn,2,724,C,67.0691532210341,61.161213133348916,3.3534576610517046,0.9607180893218425,D,2261,Incorrect
2,new_learn,2,725,B,5.084425232429449,59.021426683312114,0.25422126162147246,0.9271064023634097,B,778,Correct
2,new_learn,2,726,B,18.20063564612412,45.770677677979876,0.910031782306206,0.7189641237148395,B,764,Correct
2,new_learn,2,727,D,55.84356353883331,36.63766342485421,2.7921781769416656,0.5755030713010871,C,1694,Incorrect
2,new_learn,2,728,C,43.96869902854594,79.99778754142801,2.1984349514272967,1.2566023082179365,C,833,Correct
2,new_learn,2,729,B,18.24169109775882,70.06085387600086,0.912084554887941,1.1005133192053613,B,737,Correct
2,new_learn,2,730,C,41.810289510475684,77.320881860794,2.090514475523784,1.2145535721147738,C,840,Correct
2,new_learn,2,731,C,57.11440206366909,72.68237685534237,2.8557201031834545,1.1416921058709422,C,838,Correct
2,new_learn,2,732,C,73.67838907273057,80.65958961311469,3.6839194536365283,1.2669978708506435,C,923,Correct
2,new_learn,2,733,A,44.385732993680556,17.18573458619249,2.219286649684028,0.26995288761263175,A,2418,Correct
2,new_learn,2,734,A,58.697793388165465,47.688901882427665,2.934889669408273,0.749095519057996,A,1037,Correct
2,new_learn,2,735,C,35.627527437885554,61.87788224265682,1.7813763718942779,0.9719755013661249,C,835,Correct
2,new_learn,2,736,A,36.98347550261345,21.646370671135085,1.8491737751306727,0.34002039538659773,C,1866,Incorrect
2,new_learn,2,737,D,58.97089296093853,45.82755185319813,2.948544648046926,0.7198575011700628,C,738,Incorrect
2,new_learn,2,738,A,32.07855651116313,16.122147410778982,1.6039278255581564,0.25324609932897474,A,969,Correct
2,new_learn,2,739,A,48.70349656120112,46.96495691035024,2.435174828060056,0.7377238180285874,C,1370,Incorrect
2,new_learn,2,740,B,3.813219505344172,39.702195234625584,0.1906609752672086,0.6236406244024372,A,618,Incorrect
2,new_learn,2,741,D,53.726982654163194,50.67237388845824,2.6863491327081594,0.7959597877396783,C,1782,Incorrect
2,new_learn,2,742,C,53.947193981655865,55.588824406188614,2.6973596990827935,0.8731872118808757,C,945,Correct
2,new_learn,2,743,D,90.5509102943057,55.916242196725584,4.5275455147152845,0.8783302785079034,D,730,Correct
2,new_learn,2,744,D,77.2220514635055,45.344457278886196,3.861102573175275,0.7122690693418255,D,452,Correct
2,new_learn,2,745,C,53.537705875990255,83.14132858327176,2.6768852937995127,1.3059809354345082,C,1084,Correct
2,new_learn,2,746,B,21.874746161312412,69.28763043112372,1.0937373080656208,1.0883675537353144,B,1198,Correct
2,new_learn,2,747,A,45.993899435159236,24.84553169920702,2.299694971757962,0.39027269930380554,B,863,Incorrect
2,new_learn,2,748,D,62.305717292786454,38.11876561259602,3.1152858646393224,0.5987681700622145,D,512,Correct
2,new_learn,2,749,B,51.300385681706594,49.59113937031846,2.56501928408533,0.7789757956447002,D,620,Incorrect
2,new_learn,2,750,B,38.776422363186384,37.48689913836667,1.9388211181593191,0.5888428346947714,C,714,Incorrect
2,new_learn,2,751,B,18.210749800625333,54.02773981579152,0.9105374900312667,0.848665752476757,B,743,Correct
2,new_learn,2,752,D,88.91440811781418,46.818648332287545,4.445720405890708,0.7354256082585929,D,655,Correct
2,new_learn,2,753,A,42.97635119047357,31.311245945292782,2.1488175595236787,0.491835901182375,C,995,Incorrect
2,new_learn,2,754,C,57.53605848986551,52.20735742999489,2.876802924493276,0.8200712528270423,C,737,Correct
2,new_learn,2,755,A,40.52494926053157,23.388794727945996,2.0262474630265785,0.3673903284681741,A,1445,Correct
2,new_learn,2,756,C,71.3036014075083,79.93048531276396,3.5651800703754146,1.2555451272822304,C,3547,Correct
2,new_learn,2,757,A,63.215110726786,11.897130540425978,3.1607555363393,0.18687968952300513,D,1223,Incorrect
2,new_learn,2,758,B,45.34727352747283,42.49151179955384,2.2673636763736416,0.6674551065470118,C,1006,Incorrect
2,new_learn,2,759,B,7.301061675888093,49.374621729806144,0.36505308379440465,0.7755747445006697,B,734,Correct
2,new_learn,2,760,D,75.12193158756477,60.32925019031279,3.7560965793782386,0.9476496459723366,D,1359,Correct
2,new_learn,2,761,A,39.80863769390868,20.37079152169424,1.9904318846954339,0.31998364496181936,D,687,Incorrect
2,new_learn,2,762,C,29.78385953558436,89.94609856392862,1.489192976779218,1.412870012337508,C,910,Correct
2,new_learn,2,763,D,80.27867001053481,47.43068241918877,4.013933500526741,0.7450394172143702,D,749,Correct
2,new_learn,2,764,A,30.450584272527696,15.605430241554732,1.5225292136263848,0.2451295250148817,A,2255,Correct
2,new_learn,2,765,D,74.41218958156428,72.7159686086604,3.720609479078214,1.1422197638981677,D,1645,Correct
2,new_learn,2,766,B,21.33201802765522,70.0056290167881,1.066600901382761,1.0996458491453698,B,862,Correct
2,new_learn,2,767,D,93.32071088016205,49.3500604662733,4.6660355440081025,0.7751889370752815,D,1747,Correct
2,new_learn,2,768,B,38.90268379119192,46.51188404262136,1.945134189559596,0.7306069660645979,C,1380,Incorrect
2,new_learn,2,769,C,61.850329833145004,67.06459978519818,3.0925164916572503,1.0534482700055912,C,1146,Correct
2,new_learn,2,770,B,41.91344275566947,36.70758958941854,2.0956721377834735,0.5766014689255323,B,1098,Correct
2,new_learn,2,771,B,47.76838153291226,57.027483579094145,2.388419076645613,0.8957856173239737,B,703,Correct
2,new_learn,2,772,B,32.08759755069057,55.0913524567792,1.6043798775345284,0.8653729407727178,B,654,Correct
2,new_learn,2,773,A,65.03081750289044,39.77445505665091,3.251540875144522,0.6247756790325595,C,1163,Incorrect
2,new_learn,2,774,B,10.511332084351448,67.98679202499588,0.5255666042175724,1.067934031834321,B,686,Correct
2,new_learn,2,775,A,66.153616348573,35.60918928342165,3.3076808174286496,0.5593478372654292,D,2353,Incorrect
2,new_learn,2,776,A,35.65003969500126,43.58822656585025,1.782501984750063,0.6846822618114129,C,1264,Incorrect
2,new_learn,2,777,C,29.109730943854508,72.43368055821264,1.4554865471927254,1.1377855935707533,C,845,Correct
2,new_learn,2,778,A,29.750695070228822,21.129426640651047,1.4875347535114412,0.3319002575441689,B,740,Incorrect
2,new_learn,2,779,C,27.146117155915604,77.21920199462278,1.3573058577957802,1.2129563885118662,C,644,Correct
2,new_learn,2,780,B,34.97764253178451,35.785057844194014,1.7488821265892256,0.5621103741580287,D,688,Incorrect
2,new_learn,2,781,B,32.74401090893338,46.19439392467478,1.6372005454466692,0.7256198429539563,A,587,Incorrect
2,new_learn,2,782,C,40.055468547313886,98.011362017295,2.0027734273656943,1.539558874409318,C,651,Correct
2,new_learn,2,783,A,73.46299387092046,17.07166571800009,3.673149693546023,0.26816109802104904,D,652,Incorrect
2,new_learn,2,784,D,85.84729232429179,52.71914823262062,4.29236461621459,0.8281104439555613,D,668,Correct
2,new_learn,2,785,C,32.44713865720406,81.4012045682367,1.6223569328602028,1.2786471313246617,C,1291,Correct
2,new_learn,2,786,D,65.55867821763741,49.07197993723332,3.2779339108818704,0.7708208583395895,D,1155,Correct
2,new_learn,2,787,D,64.76423238931653,28.534421707625462,3.238211619465827,0.4482176480555463,A,1773,Incorrect
2,new_learn,2,788,B,15.20107352858988,44.682101738693056,0.7600536764294941,0.7018648128461492,B,568,Correct
2,new_learn,2,789,D,64.29842281600347,33.06048092095305,3.2149211408001737,0.5193128199270581,D,492,Correct
2,new_learn,2,790,C,52.72476111753728,55.87872824644168,2.6362380558768637,0.8777410107548084,C,894,Correct
2,new_learn,2,791,A,54.64469418258875,4.987404770000907,2.7322347091294374,0.07834197092956771,A,1032,Correct
2,new_learn,2,792,A,72.00467340259486,37.16714041861616,3.600233670129743,0.583820076470324,D,647,Incorrect
2,new_learn,2,793,C,57.80246227538534,67.96812092729397,2.890123113769267,1.067640746917447,C,902,Correct
2,new_learn,2,794,B,6.902981252994181,36.39381161476509,0.345149062649709,0.5716726560253845,B,644,Correct
2,new_learn,2,795,D,83.4945905002194,59.41550842194647,4.17472952501097,0.9332966238384477,D,821,Correct
2,new_learn,2,796,A,72.7099240917403,31.682144003430196,3.635496204587015,0.4976619542557511,D,816,Incorrect
2,new_learn,2,797,A,34.08017921805426,17.604349831672494,1.7040089609027131,0.2765284805120351,A,905,Correct
2,new_learn,2,798,B,33.72419211263408,73.13359803847015,1.686209605631704,1.1487798716412336,B,1619,Correct
2,new_learn,2,799,D,88.38007880651924,67.98959295680967,4.419003940325962,1.067978028768368,C,756,Incorrect
2,new_learn,2,800,A,62.20528977021971,17.48264221120111,3.110264488510985,0.27461670168024116,D,1022,Incorrect
2,new_learn,2,801,D,53.84319650672091,49.259923206727464,2.692159825336045,0.7737730643132619,C,1623,Incorrect
2,new_learn,2,802,A,25.5251500408987,27.337219642670398,1.276257502044935,0.42941204199491956,B,710,Incorrect
2,new_learn,2,803,B,41.198105571342396,41.278785602605936,2.05990527856712,0.6484056479912748,B,1814,Correct
2,new_learn,2,804,B,34.262709505524946,25.023807338331764,1.7131354752762473,0.39307304649474706,B,610,Correct
2,new_learn,2,805,A,31.767438200568186,22.24404953509126,1.5883719100284095,0.34940871302765075,B,471,Incorrect
2,new_learn,2,806,D,53.2895813517958,53.465083027470044,2.66447906758979,0.8398275603133412,C,930,Incorrect
2,new_learn,2,807,C,36.79566121843084,81.20674520154593,1.8397830609215418,1.2755925707355744,C,661,Correct
2,new_learn,2,808,A,48.27392745613914,42.5346198400203,2.413696372806957,0.6681322460632122,D,622,Incorrect
2,new_learn,2,809,D,62.54686561106327,56.64106273493427,3.127343280553163,0.8897157328979405,D,851,Correct
2,new_learn,2,810,B,17.31649608124052,47.35561315918168,0.8658248040620259,0.7438602320356265,B,666,Correct
2,new_learn,2,811,C,41.15435944340479,81.60906126722013,2.0577179721702397,1.2819121367172903,C,727,Correct
2,new_learn,2,812,A,32.81494620034435,5.600764664603744,1.6407473100172176,0.08797660562402213,A,1191,Correct
2,new_learn,2,813,D,90.47202169040126,60.56816933305247,4.523601084520063,0.9514025790905011,D,744,Correct
2,new_learn,2,814,B,23.224310874560622,70.57556126158563,1.161215543728031,1.108598323911869,C,1220,Incorrect
2,new_learn,2,815,D,95.77257813759356,53.01390778550852,4.788628906879677,0.8327405161852015,D,813,Correct
2,new_learn,2,816,C,55.27793260282911,53.032232233426065,2.7638966301414554,0.8330283559399956,C,915,Correct
2,new_learn,2,817,A,54.09840471535672,32.92371142659558,2.704920235767836,0.5171644497335149,D,2034,Incorrect
2,new_learn,2,818,B,30.23211433774259,27.368676944778176,1.5116057168871295,0.4299061721409373,D,645,Incorrect
2,new_learn,2,819,C,35.23689038547102,83.2440849810178,1.761844519273551,1.30759502915585,C,692,Correct
2,new_learn,2,820,D,70.91064880345722,30.009452685929602,3.545532440172861,0.4713873804818346,D,828,Correct
2,new_learn,2,821,C,48.986336926874834,70.77774056291827,2.449316846343742,1.1117741489507418,C,721,Correct
2,new_learn,2,822,B,18.898319634696378,58.886773083869926,0.9449159817348189,0.9249912685694747,B,997,Correct
2,new_learn,2,823,D,91.7719316917184,33.05299058641141,4.58859658458592,0.5191951620272134,D,1106,Correct
2,new_learn,2,824,D,66.74834794744366,31.11970986159648,3.3374173973721835,0.4888272594151867,C,1785,Incorrect
2,new_learn,2,825,D,83.33124319583978,55.18137200744998,4.166562159791988,0.8667869645680516,D,430,Correct
2,new_learn,2,826,A,37.91354597765923,46.870473321881164,1.8956772988829615,0.7362396732914913,C,613,Incorrect
2,new_learn,2,827,B,45.210160932182276,60.20797936476936,2.2605080466091136,0.9457447282992264,C,617,Incorrect
2,new_learn,2,828,C,64.75338869658428,82.45225023248655,3.2376694348292143,1.2951569180116351,C,3206,Correct
2,new_learn,2,829,C,37.37014301303206,95.52058602751967,1.8685071506516033,1.5004338566532385,C,819,Correct
2,new_learn,2,830,B,30.82763076085514,73.0948368514939,1.5413815380427571,1.1481710123399884,C,1657,Incorrect
2,new_learn,2,831,B,9.339388689486857,29.15467676152178,0.4669694344743428,0.45796059165890945,B,849,Correct
2,new_learn,2,832,C,66.0721575138223,72.97605122854503,3.303607875691115,1.1463051321379474,C,1022,Correct
2,new_learn,2,833,A,66.48995965576398,45.49648259680642,3.3244979827881993,0.7146570774515146,D,914,Incorrect
2,new_learn,2,834,C,50.95886225654395,99.70242550771647,2.547943112827198,1.5661220376006282,C,759,Correct
2,new_learn,2,835,C,62.501568086083566,93.448492245942,3.1250784043041784,1.4678854836444704,C,777,Correct
2,new_learn,2,836,A,64.56187442082238,40.34121485857197,3.228093721041119,0.6336783211828856,D,1038,Incorrect
2,new_learn,2,837,D,92.99470183067723,33.196240943554955,4.649735091533861,0.5214453333753447,D,684,Correct
2,new_learn,2,838,B,26.154090831213423,67.56173961324436,1.307704541560671,1.0612573241635748,B,846,Correct
2,new_learn,2,839,B,26.128058674066484,43.37561468457682,1.306402933703324,0.6813425621900403,A,1120,Incorrect
2,new_learn,2,840,A,59.02358227280165,24.730542070985578,2.9511791136400825,0.38846644644750805,A,810,Correct
2,new_learn,2,841,C,32.48397922226033,94.23522417565616,1.6241989611130165,1.4802434398981432,C,656,Correct
2,new_learn,2,842,A,73.06037105679384,24.550953941445254,3.6530185528396917,0.3856454827053289,D,679,Incorrect
2,new_learn,2,843,C,38.40412081510697,78.17442523785533,1.9202060407553487,1.2279610001292542,C,743,Correct
2,new_learn,2,844,A,53.177132751062864,35.376868118092105,2.6588566375531433,0.5556985449340657,B,1857,Incorrect
2,new_learn,2,845,D,93.4778041846836,57.085805479013324,4.67389020923418,0.8967017355856213,D,649,Correct
2,new_learn,2,846,D,52.91108140096143,47.62627492546098,2.6455540700480715,0.7481117771183801,D,621,Correct
2,new_learn,2,847,C,48.62510414195493,99.99774223769995,2.4312552070977462,1.5707608619476197,C,698,Correct
2,new_learn,2,848,A,50.28298385474679,23.612129896303312,2.5141491927373396,0.3708984690891721,D,933,Incorrect
2,new_learn,2,849,B,31.8800420301053,59.77325862408635,1.594002101505265,0.938916150872762,D,710,Incorrect
2,new_learn,2,850,A,43.14063662186517,17.061112861637135,2.157031831093258,0.26799533414092774,D,586,Incorrect
2,new_learn,2,851,D,84.32841620774661,30.405608892836042,4.216420810387331,0.477610187628291,D,618,Correct
2,new_learn,2,852,C,44.88622482451811,77.75875245248845,2.2443112412259056,1.2214316272852253,C,3621,Correct
2,new_learn,2,853,D,78.55611062365224,52.737343474443726,3.927805531182612,0.82839625414577,D,3151,Correct
2,new_learn,2,854,A,69.93812554985982,33.332678760594604,3.496906277492991,0.5235884935937627,D,637,Incorrect
2,new_learn,2,855,D,73.79571806688485,24.213170687879455,3.689785903344242,0.3803395957657891,D,562,Correct
2,new_learn,2,856,A,52.24798580527999,13.087688307912206,2.6123992902639994,0.20558092720305007,A,3865,Correct
2,new_learn,2,857,A,57.39250237628419,21.183285911952453,2.8696251188142092,0.33274627699940995,A,791,Correct
2,new_learn,2,858,B,3.570194564352267,65.16052259910747,0.17850972821761335,1.0235390955071386,B,599,Correct
2,new_learn,2,859,C,59.59008974677128,79.15442724164231,2.9795044873385637,1.2433548356072561,C,935,Correct
2,new_learn,2,860,D,87.39115837698512,58.29940333248433,4.369557918849256,0.9157648860900055,D,1513,Correct
2,new_learn,2,861,D,73.83975928113959,60.01193330950665,3.6919879640569797,0.9426652440643335,D,714,Correct
2,new_learn,2,862,C,44.55485874789299,89.32707428066888,2.2277429373946496,1.4031464016340955,C,631,Correct
2,new_learn,2,863,A,57.117280269541496,15.350054815256115,2.8558640134770745,0.24111809719904617,A,1268,Correct
2,new_learn,2,864,C,75.18183239518774,67.70869801109129,3.7590916197593867,1.0635657412788708,C,1818,Correct
2,new_learn,2,865,B,30.491945259476047,48.9792491722825,1.5245972629738023,0.7693642468899333,B,1854,Correct
2,new_learn,2,866,D,97.88478740791288,44.5742118327844,4.894239370395644,0.7001700821671535,D,581,Correct
2,new_learn,2,867,A,38.76555740712934,27.42307958717482,1.9382778703564671,0.4307607268493831,C,795,Incorrect
2,new_learn,2,868,C,38.78879655123376,73.49190876619808,1.939439827561688,1.154408203390896,C,576,Correct
2,new_learn,2,869,A,60.34924252721326,42.60486889527161,3.0174621263606634,0.6692357156427079,D,1684,Incorrect
2,new_learn,2,870,C,57.54176699988382,53.98887268909692,2.8770883499941906,0.8480552290783075,C,652,Correct
2,new_learn,2,871,C,47.57437724589759,60.623447702892946,2.378718862294879,0.9522708896934675,C,944,Correct
2,new_learn,2,872,B,19.874771001422104,65.98960465340065,0.9937385500711052,1.0365622859620913,B,2546,Correct
2,new_learn,2,873,A,42.34248238841979,43.37299371596477,2.1171241194209895,0.6813013921113559,106,1498,Incorrect
2,new_learn,2,874,B,7.733848251456958,37.82692293914845,0.386692412572848,0.59418391606768,B,699,Correct
2,new_learn,2,875,A,35.161464019006054,30.52408535982982,1.7580732009503026,0.4794712116199456,A,5726,Correct
2,new_learn,2,876,D,69.74378016078074,45.998350321190074,3.487189008039037,0.7225403972315021,C,836,Incorrect
2,new_learn,2,877,C,27.509599330953982,80.09895120804413,1.375479966547699,1.2581913833771936,C,703,Correct
2,new_learn,2,878,D,73.02409809231442,36.69885751879934,3.651204904615721,0.5764643058809927,D,608,Correct
2,new_learn,2,879,D,75.80364032979557,69.06346812400974,3.7901820164897786,1.0848464204491093,D,881,Correct
2,new_learn,2,880,D,53.642453590447495,56.697502539551394,2.682122679522375,0.8906022872757164,C,664,Incorrect
2,new_learn,2,881,B,12.209298242721747,45.83356680857324,0.6104649121360873,0.7199519838681534,B,576,Correct
2,new_learn,2,882,B,17.44390538146771,74.02472875193337,0.8721952690733856,1.162777720155255,B,1017,Correct
2,new_learn,2,883,B,17.665206205294112,70.59963581758083,0.8832603102647056,1.1089764861531337,B,551,Correct
2,new_learn,2,884,D,92.75082614125,57.39150087103863,4.6375413070625005,0.901503587574736,D,624,Correct
2,new_learn,2,885,A,32.79365799716419,22.664562837955142,1.6396828998582094,0.3560141205427206,B,1628,Incorrect
2,new_learn,2,886,B,17.380772843395107,48.49822041236634,0.8690386421697553,0.7618082647983433,B,730,Correct
2,new_learn,2,887,B,15.55012861512886,64.21135185695317,0.7775064307564431,1.008629556354367,B,556,Correct
2,new_learn,2,888,B,40.7184367803532,38.29987344236085,2.0359218390176603,0.6016130051996983,A,2827,Incorrect
2,new_learn,2,889,D,87.72145868025655,26.859625633738325,4.3860729340128275,0.4219100128456221,D,1181,Correct
2,new_learn,2,890,A,25.87349452872499,18.475926133821314,1.2936747264362496,0.29021916905140355,B,786,Incorrect
2,new_learn,2,891,A,54.874896215934875,45.31165059342262,2.7437448107967435,0.7117537431316205,B,1032,Incorrect
2,new_learn,2,892,B,13.940921971812564,39.34408882899562,0.6970460985906283,0.6180155021367846,B,632,Correct
2,new_learn,2,893,A,44.10622320334541,25.447568646447237,2.20531116016727,0.399729473557003,C,538,Incorrect
2,new_learn,2,894,C,68.19465582653756,86.76357536506012,3.409732791326878,1.3628790548302863,C,671,Correct
2,new_learn,2,895,B,19.473010871206135,62.64187433408583,0.9736505435603067,0.9839762610752953,B,1260,Correct
2,new_learn,2,896,C,57.614280424499995,58.79938817962379,2.8807140212249998,0.923618629703403,C,854,Correct
2,new_learn,2,897,A,69.02541991089194,16.080784216647334,3.4512709955445975,0.2525963677949098,D,631,Incorrect
2,new_learn,2,898,D,93.06998359451995,64.33351956441643,4.653499179725998,1.0105485622157295,D,643,Correct
