experiment,condition,subject,trial,cat,x,y,xt,yt,resp,rt,fb
2,relearn,5,0,D,71.28388441894282,38.32271988098196,3.564194220947141,0.6019718762183622,A,22142,Incorrect
2,relearn,5,1,C,49.65858548857588,58.30117956544802,2.482929274428794,0.9157927870921543,B,3334,Incorrect
2,relearn,5,2,A,2.486125491605037,44.938901907253374,0.12430627458025185,0.7058986204610976,B,3263,Incorrect
2,relearn,5,3,C,59.71408589058419,39.790385525882556,2.9857042945292096,0.6250259142580913,C,3148,Correct
2,relearn,5,4,D,36.06555581582419,17.598121994562476,1.8032777907912094,0.27643065387547217,C,4655,Incorrect
2,relearn,5,5,B,44.61844055707115,63.15311786254155,2.2309220278535578,0.9920068556412545,C,1924,Incorrect
2,relearn,5,6,A,16.57880656391866,30.707389133742698,0.8289403281959331,0.4823505405674455,A,3480,Correct
2,relearn,5,7,D,33.651819832496514,15.897510047502786,1.6825909916248258,0.24971750387802338,C,3667,Incorrect
2,relearn,5,8,B,57.74280137565741,51.5254975047995,2.88714006878287,0.8093606221681867,C,2039,Incorrect
2,relearn,5,9,B,62.73969602052591,70.51122777683256,3.1369848010262955,1.1075877758964685,D,4367,Incorrect
2,relearn,5,10,B,73.05673528517706,64.8809919538989,3.652836764258853,1.0191482383999362,B,4636,Correct
2,relearn,5,11,A,45.65854369961359,54.81356791601108,2.282927184980679,0.8610095114099279,C,3172,Incorrect
2,relearn,5,12,D,59.16134348214795,46.30327387387857,2.958067174107397,0.7273301251966656,B,1838,Incorrect
2,relearn,5,13,A,23.010131330011706,57.96456700746292,1.1505065665005854,0.910505289395794,A,3111,Correct
2,relearn,5,14,A,16.03745992209927,54.35520118380117,0.8018729961049635,0.8538095036171248,A,1677,Correct
2,relearn,5,15,D,67.79360362821298,5.197103513298622,3.3896801814106485,0.08163591108662327,D,2636,Correct
2,relearn,5,16,A,36.658649796552325,72.71162284778646,1.832932489827616,1.1421515008459882,C,1991,Incorrect
2,relearn,5,17,D,42.59554101110435,46.72966273157796,2.1297770505552176,0.7340278257112703,B,2563,Incorrect
2,relearn,5,18,D,61.181929089557016,39.56283164863758,3.0590964544778507,0.621451506312848,C,3255,Incorrect
2,relearn,5,19,B,30.35735386654528,65.91235797317471,1.5178676933272641,1.0353488979465315,C,5750,Incorrect
2,relearn,5,20,A,15.00711850886707,33.37653444385623,0.7503559254433534,0.5242773770555271,A,1836,Correct
2,relearn,5,21,C,58.008752775137,51.68437544547533,2.90043763875685,0.8118562710244099,D,6897,Incorrect
2,relearn,5,22,B,37.67729344274653,88.40625884844124,1.8838646721373267,1.3886822666481033,C,3094,Incorrect
2,relearn,5,23,B,27.198241085700364,79.33312508587585,1.359912054285018,1.2461618147805387,B,2805,Correct
2,relearn,5,24,C,66.29741425179328,58.69092790072497,3.314870712589664,0.9219149396264288,B,2784,Incorrect
2,relearn,5,25,B,46.1968054810728,58.91967685944179,2.30984027405364,0.9255081198675343,C,2083,Incorrect
2,relearn,5,26,A,34.57828340317308,35.132840790989796,1.7289141701586541,0.5518653726435668,B,2648,Incorrect
2,relearn,5,27,A,42.53935461145717,61.71057692359058,2.1269677305728583,0.9693474755596999,D,1789,Incorrect
2,relearn,5,28,C,73.75028230292989,32.411514313909635,3.6875141151464947,0.5091188763014947,D,2645,Incorrect
2,relearn,5,29,B,51.72173298277737,101.1745472765715,2.5860866491388688,1.5892460722717512,C,3055,Incorrect
2,relearn,5,30,A,-0.5086812098638731,43.299734716647215,-0.025434060493193654,0.6801506424410291,D,2508,Incorrect
2,relearn,5,31,A,13.692257055672,29.958379308608954,0.6846128527836,0.47058512174691175,A,1420,Correct
2,relearn,5,32,C,68.26240351984255,28.577761298625155,3.4131201759921277,0.4488984247590174,D,3085,Incorrect
2,relearn,5,33,B,66.87222974631624,57.72351776695287,3.343611487315812,0.9067188967800951,A,2854,Incorrect
2,relearn,5,34,B,37.340401012101886,97.08166652830401,1.8670200506050945,1.5249552518178702,D,2183,Incorrect
2,relearn,5,35,A,36.7922902737387,55.946963417583945,1.839614513686935,0.8788128463166932,D,1918,Incorrect
2,relearn,5,36,A,29.01449843820182,59.80634900094543,1.450724921910091,0.9394359332969872,D,1246,Incorrect
2,relearn,5,37,B,64.62744801403713,52.67178310291508,3.231372400701856,0.827366434237965,D,1268,Incorrect
2,relearn,5,38,D,60.25653955790129,17.740034053431973,3.012826977895065,0.2786598032834733,C,1911,Incorrect
2,relearn,5,39,C,82.05979589852443,73.41107312287407,4.102989794926222,1.1531384400748215,B,1492,Incorrect
2,relearn,5,40,B,39.31107550426887,98.29897045245231,1.9655537752134435,1.5440766171443214,B,1510,Correct
2,relearn,5,41,B,54.716732175790156,56.99277052992946,2.735836608789508,0.8952403460227761,D,3143,Incorrect
2,relearn,5,42,B,31.394068671317626,69.61900470523334,1.5697034335658813,1.0935727686609715,B,3278,Correct
2,relearn,5,43,A,10.708287010470075,28.247265997989093,0.5354143505235037,0.4437070167163964,A,2389,Correct
2,relearn,5,44,B,45.73243500988454,63.40783324550505,2.286621750494227,0.9960079155206267,C,2998,Incorrect
2,relearn,5,45,C,85.19373073649757,41.32941344211801,4.259686536824878,0.6492009082346659,C,2918,Correct
2,relearn,5,46,A,26.958529976811153,26.474445706770606,1.3479264988405577,0.4158596207012619,D,3133,Incorrect
2,relearn,5,47,A,42.658892117035464,31.597160534958984,2.1329446058517734,0.4963270370546224,C,2167,Incorrect
2,relearn,5,48,B,49.9394649308857,85.12261815603051,2.4969732465442847,1.3371029592665729,B,2230,Correct
2,relearn,5,49,D,67.29179559138564,19.769935410594933,3.3645897795692816,0.31054541923934875,D,2187,Correct
2,relearn,5,50,C,98.37359798806585,53.709520688856124,4.918679899403292,0.8436671781196969,D,2511,Incorrect
2,relearn,5,51,A,4.907094882941703,67.63004405013092,0.24535474414708514,1.062330247749227,A,1700,Correct
2,relearn,5,52,C,66.6820616675688,36.175990283792274,3.33410308337844,0.5682511265594877,C,1681,Correct
2,relearn,5,53,B,69.80375526263816,76.70509811145905,3.490187763131908,1.2048808635992203,C,1462,Incorrect
2,relearn,5,54,B,55.4273771925045,61.22451735592487,2.771368859625225,0.9617124697247716,C,1660,Incorrect
2,relearn,5,55,A,33.48555689605759,32.99553126884147,1.6742778448028792,0.5182925931774233,B,2205,Incorrect
2,relearn,5,56,C,53.46484598170642,47.48062768338175,2.6732422990853206,0.7458239555897213,C,1549,Correct
2,relearn,5,57,D,45.115448565916395,13.8612967619627,2.2557724282958196,0.21773274038305002,D,2911,Correct
2,relearn,5,58,C,63.29256374147937,33.17011402727249,3.1646281870739688,0.521034932734075,C,2381,Correct
2,relearn,5,59,B,66.89395803846499,92.28575638800847,3.344697901923249,1.4496212714977235,B,2323,Correct
2,relearn,5,60,C,97.81679444560481,42.205197891071194,4.890839722280241,0.6629576981894635,D,1920,Incorrect
2,relearn,5,61,B,41.97762124863942,82.6583792500736,2.098881062431971,1.2983947850483508,B,1653,Correct
2,relearn,5,62,D,50.903432447096016,-0.16860564658533406,2.545171622354801,-0.002648451303331212,C,4709,Incorrect
2,relearn,5,63,C,61.59868976156902,42.74084801672367,3.0799344880784507,0.6713716706876848,C,2581,Correct
2,relearn,5,64,C,86.0732220056261,44.95077350269098,4.303661100281306,0.7060850990461636,D,1505,Incorrect
2,relearn,5,65,D,55.870611263940134,48.03989924895377,2.793530563197007,0.7546089727985349,C,1596,Incorrect
2,relearn,5,66,D,54.65385746071725,45.14355393068487,2.7326928730358624,0.7091132869278711,B,3077,Incorrect
2,relearn,5,67,A,27.395252733035587,76.60536159994052,1.3697626366517792,1.2033142061398139,A,2038,Correct
2,relearn,5,68,A,13.601766350436947,34.72595257166196,0.6800883175218473,0.545473987440204,A,1431,Correct
2,relearn,5,69,A,42.33108516169682,36.48121483623112,2.116554258084841,0.5730455826176732,D,7739,Incorrect
2,relearn,5,70,D,46.64129810973603,2.6069003560634876,2.3320649054868015,0.040949095036248336,D,5253,Correct
2,relearn,5,71,D,54.36514326651674,37.22187509698733,2.718257163325837,0.5846798467876613,C,1934,Incorrect
2,relearn,5,72,D,69.02826995940518,31.713090854915947,3.451413497970259,0.4981480662621479,C,2088,Incorrect
2,relearn,5,73,B,33.634837112043385,93.58771651095512,1.6817418556021693,1.4700724132853038,B,3276,Correct
2,relearn,5,74,C,80.82401986405044,48.74387054516855,4.041200993202522,0.765666928061167,A,2760,Incorrect
2,relearn,5,75,A,12.621266720805991,34.06294276180303,0.6310633360402995,0.5350594537006501,A,1125,Correct
2,relearn,5,76,C,50.90130899880593,49.77124621618891,2.5450654499402963,0.7818049073639395,B,7715,Incorrect
2,relearn,5,77,B,52.93035993346894,94.41323366644536,2.646517996673447,1.4830396064408062,B,2991,Correct
2,relearn,5,78,B,35.27644612410147,61.144116354067506,1.7638223062050735,0.9604495337408901,D,4622,Incorrect
2,relearn,5,79,A,34.64366128843322,27.234042403139323,1.7321830644216611,0.4277913377062771,C,1462,Incorrect
2,relearn,5,80,A,10.31980313784988,30.671692312282,0.515990156892494,0.4817898162071584,A,1230,Correct
2,relearn,5,81,B,26.088641900249335,81.86150817151751,1.3044320950124668,1.2858775634171011,B,2189,Correct
2,relearn,5,82,D,66.97909789235258,38.25759011132412,3.348954894617629,0.6009488201889268,C,15421,Incorrect
2,relearn,5,83,D,59.19515784650016,6.25003474792155,2.959757892325008,0.09817531624375636,D,2625,Correct
2,relearn,5,84,B,35.81507621608941,83.91066326250714,1.7907538108044705,1.318065616316697,B,2211,Correct
2,relearn,5,85,A,10.865324215919417,31.586416793658245,0.5432662107959708,0.49615827476091007,A,1332,Correct
2,relearn,5,86,D,41.51297123331072,21.402178793085312,2.0756485616655365,0.33618463833586043,D,4959,Correct
2,relearn,5,87,B,50.52063727175294,91.97753756730988,2.526031863587647,1.4447797815836998,B,1933,Correct
2,relearn,5,88,C,91.35358096215722,57.559764277645336,4.567679048107862,0.9041466629850539,C,2326,Correct
2,relearn,5,89,C,96.64577322685635,50.8255141256201,4.832288661342818,0.798365308959862,C,1150,Correct
2,relearn,5,90,D,54.204920960556116,39.57768852345433,2.710246048027806,0.621684877556746,B,4597,Incorrect
2,relearn,5,91,A,28.328519408683494,76.09126606209999,1.4164259704341748,1.1952388123151985,B,2004,Incorrect
2,relearn,5,92,D,53.81622413545388,49.4187544846,2.6908112067726937,0.776267980191885,C,2157,Incorrect
2,relearn,5,93,B,35.36038966907784,76.41638779888994,1.768019483453892,1.2003458126143067,B,2000,Correct
2,relearn,5,94,B,44.803827024689056,57.10221374732423,2.2401913512344525,0.8969594760615394,B,4013,Correct
2,relearn,5,95,C,89.21807268844924,44.43527837810765,4.460903634422462,0.6979877205644017,C,4607,Correct
2,relearn,5,96,C,81.25693232380341,56.266146437325496,4.06284661619017,0.8838265614665466,C,1277,Correct
2,relearn,5,97,C,91.41871630961906,52.87002017049961,4.570935815480953,0.8304803348139288,C,1293,Correct
2,relearn,5,98,D,55.02244451346847,49.16961782233995,2.7511222256734236,0.7723545506524049,D,6824,Correct
2,relearn,5,99,C,90.64226372621359,69.98459040231069,4.532113186310679,1.0993153753619498,C,2781,Correct
2,relearn,5,100,D,49.96448065918415,9.435041584618524,2.4982240329592074,0.14820528664275878,D,2165,Correct
2,relearn,5,101,A,22.32668942782135,46.24199901381365,1.1163344713910675,0.7263676219455172,A,1356,Correct
2,relearn,5,102,D,44.1783193875236,48.47001363742463,2.20891596937618,0.7613651938136515,D,3797,Correct
2,relearn,5,103,D,53.688350163306666,17.63284460368524,2.684417508165333,0.27697607534413987,D,5431,Correct
2,relearn,5,104,A,37.57733460176051,61.21320853025631,1.8788667300880257,0.9615348311065665,D,2853,Incorrect
2,relearn,5,105,C,60.75106199067291,63.17999566629153,3.0375530995336453,0.9924290511952824,C,4100,Correct
2,relearn,5,106,C,74.4863186919407,41.526258760387066,3.724315934597035,0.6522929472635041,C,3535,Correct
2,relearn,5,107,D,41.86113641135421,46.01878387268786,2.0930568205677105,0.7228613667078632,B,6747,Incorrect
2,relearn,5,108,D,62.33402126253826,35.82585536922893,3.116701063126913,0.5627512201827003,C,1726,Incorrect
2,relearn,5,109,C,58.386124184221735,64.24171687712708,2.919306209211087,1.0091065289758891,C,9343,Correct
2,relearn,5,110,D,29.3077844573712,41.916606211759444,1.46538922286856,0.6584245106913987,A,2141,Incorrect
2,relearn,5,111,C,77.94559813217737,57.80276096257646,3.897279906608868,0.9079636459861855,C,5341,Correct
2,relearn,5,112,B,28.13641341526275,77.45952799876962,1.4068206707631377,1.2167314205573376,B,4109,Correct
2,relearn,5,113,C,84.53132608639075,65.51990970386903,4.226566304319538,1.029184334947708,C,2806,Correct
2,relearn,5,114,B,27.726452511803835,67.33646197449322,1.386322625590192,1.057718671288982,B,2213,Correct
2,relearn,5,115,D,47.007028487616466,47.40627364374956,2.3503514243808237,0.7446560050663553,B,4284,Incorrect
2,relearn,5,116,B,60.358408087210464,83.04077368685782,3.0179204043605234,1.3044014228152256,B,2345,Correct
2,relearn,5,117,D,73.59246785423858,32.30133313306496,3.679623392711929,0.5073881543599672,C,3020,Incorrect
2,relearn,5,118,A,2.618485028044521,44.11579713223973,0.13092425140222605,0.6929693208895099,A,3356,Correct
2,relearn,5,119,C,91.03593405570949,43.1875127838625,4.551796702785475,0.6783878644429886,C,3189,Correct
2,relearn,5,120,B,69.47210362420708,67.37512367670344,3.473605181210354,1.0583259678871761,B,2591,Correct
2,relearn,5,121,C,77.96111125887703,34.10460879929916,3.8980555629438514,0.5357139422871603,C,2780,Correct
2,relearn,5,122,C,78.24604709885307,59.65965540589159,3.9123023549426534,0.937131675694238,B,3432,Incorrect
2,relearn,5,123,D,62.422084782090394,33.316774450989094,3.1211042391045196,0.5233386692826772,C,1846,Incorrect
2,relearn,5,124,B,57.24492107398323,79.89375086556807,2.8622460536991614,1.2549681039350091,B,2940,Correct
2,relearn,5,125,A,19.802060536029224,73.95508491093895,0.9901030268014611,1.161683757259076,A,3702,Correct
2,relearn,5,126,B,24.812023349819075,71.01857876124161,1.2406011674909536,1.1155572265235238,B,2693,Correct
2,relearn,5,127,A,33.39897371883931,41.67541123609601,1.6699486859419652,0.6546358288732637,A,5349,Correct
2,relearn,5,128,A,0.1747122795110485,49.406760044246525,0.008735613975552425,0.776079571963393,A,3651,Correct
2,relearn,5,129,A,34.176053674559874,63.30833774059939,1.7088026837279937,0.9944450437842425,B,3071,Incorrect
2,relearn,5,130,C,99.6117483846932,53.74013591831387,4.98058741923466,0.844148081019459,C,2412,Correct
2,relearn,5,131,B,29.48930005998709,59.69196463869423,1.4744650029993545,0.9376391879363175,B,2277,Correct
2,relearn,5,132,D,52.023768263863595,28.58897580363831,2.6011884131931797,0.4490745817918323,D,10870,Correct
2,relearn,5,133,C,85.09828715598799,62.052316008596144,4.254914357799399,0.9747155005541899,C,3700,Correct
2,relearn,5,134,A,28.157808969055488,68.87503250448867,1.4078904484527743,1.081886480659299,B,2879,Incorrect
2,relearn,5,135,C,83.37520540194373,52.525324984837304,4.168760270097186,0.8250658754989064,C,2014,Correct
2,relearn,5,136,A,29.293367932808714,53.30858361075044,1.4646683966404357,0.8373692732240541,B,7813,Incorrect
2,relearn,5,137,B,27.26124092212593,77.93326984151835,1.3630620461062963,1.2241729400217252,B,1628,Correct
2,relearn,5,138,D,40.845967837953665,43.420362765129894,2.042298391897683,0.6820454633956794,A,5336,Incorrect
2,relearn,5,139,B,51.80870306914011,59.55553419106648,2.5904351534570056,0.9354961434763508,C,2436,Incorrect
2,relearn,5,140,C,72.81692560367064,55.80138446203165,3.640846280183532,0.8765260974302913,C,1568,Correct
2,relearn,5,141,B,64.67665456510558,62.01098688815128,3.2338327282552792,0.9740663042483454,C,1835,Incorrect
2,relearn,5,142,B,35.61968718053355,93.19144313280052,1.7809843590266778,1.463847765617185,B,2385,Correct
2,relearn,5,143,B,67.79293635057185,92.2031706459661,3.3896468175285923,1.4483240176952659,B,2219,Correct
2,relearn,5,144,C,83.4624005894844,46.4806097666971,4.17312002947422,0.7301157108871479,C,2607,Correct
2,relearn,5,145,D,44.94239829332284,31.350771054116734,2.247119914666142,0.4924567601399434,D,3070,Correct
2,relearn,5,146,A,31.87880972892442,59.3278341020643,1.593940486446221,0.931919438842196,B,5277,Incorrect
2,relearn,5,147,A,32.90795637454898,51.64400541718143,1.645397818727449,0.8112221401028433,B,3381,Incorrect
2,relearn,5,148,B,66.1582706990348,55.24581482332205,3.30791353495174,0.8677992299526534,C,1637,Incorrect
2,relearn,5,149,A,26.76073040756976,52.56849581079388,1.3380365203784879,0.8257440012472794,D,4852,Incorrect
2,relearn,5,150,D,75.91580019397811,21.10706830995485,3.7957900096989055,0.33154905370686044,C,1321,Incorrect
2,relearn,5,151,B,27.42465719683596,86.6558070030313,1.371232859841798,1.3611862333580904,B,3324,Correct
2,relearn,5,152,A,19.092524918756983,45.22447331847451,0.9546262459378491,0.7103843656989356,A,3127,Correct
2,relearn,5,153,B,76.00992046962727,77.8011255207725,3.800496023481364,1.2220972218853812,B,2029,Correct
2,relearn,5,154,C,84.46523197419067,52.578391951115435,4.223261598709533,0.8258994494559448,C,5581,Correct
2,relearn,5,155,A,6.81632718563921,47.550117408192804,0.3408163592819605,0.7469154976345532,A,1909,Correct
2,relearn,5,156,B,68.23882332711726,75.61577983512056,3.411941166355863,1.1877698921273898,B,4855,Correct
2,relearn,5,157,C,58.34256902157577,29.75097737386818,2.917128451078788,0.46732725977430223,D,2611,Incorrect
2,relearn,5,158,D,52.612251784925014,2.4323829243301027,2.6306125892462506,0.03820778162896354,D,2014,Correct
2,relearn,5,159,C,67.03224030739231,67.17972003320924,3.351612015369616,1.055256574632746,B,2445,Incorrect
2,relearn,5,160,A,16.188320643980227,59.29333425978466,0.8094160321990114,0.9313775165869174,A,1781,Correct
2,relearn,5,161,B,44.521225532761086,73.50196996649284,2.2260612766380543,1.1545662443555573,B,2173,Correct
2,relearn,5,162,D,66.47436416258432,40.2930833436418,3.323718208129216,0.6329222731143317,C,1702,Incorrect
2,relearn,5,163,B,68.42230802160277,66.47398377440749,3.4211154010801383,1.0441708954026283,B,2664,Correct
2,relearn,5,164,C,91.46111686348382,33.75858217515385,4.573055843174191,0.5302785687853534,C,1892,Correct
2,relearn,5,165,A,8.468620772866796,70.43357132279863,0.4234310386433398,1.1063679511689843,A,5312,Correct
2,relearn,5,166,C,83.80867970769562,65.53157322782037,4.1904339853847805,1.0293675451535103,C,3557,Correct
2,relearn,5,167,D,59.559632671469544,22.500608154777495,2.9779816335734774,0.3534387264017579,D,4957,Correct
2,relearn,5,168,D,62.473253489940475,26.924865597136286,3.123662674497024,0.42293479979427956,D,2578,Correct
2,relearn,5,169,D,52.795640738916205,22.733704334975595,2.63978203694581,0.3571001926382088,D,1192,Correct
2,relearn,5,170,C,81.88775325984508,39.47248666539096,4.094387662992254,0.6200323706345665,C,1661,Correct
2,relearn,5,171,B,34.2019610282223,56.90785396294595,1.7100980514111148,0.8939064797077588,B,6127,Correct
2,relearn,5,172,B,66.60429752895708,95.8124906679896,3.330214876447854,1.5050190840234836,B,4446,Correct
2,relearn,5,173,D,30.75085050242201,27.900632186270897,1.5375425251211003,0.4382621055344979,A,6431,Incorrect
2,relearn,5,174,B,44.344516564404955,53.87293300670645,2.217225828220248,0.8462340528060202,B,5427,Correct
2,relearn,5,175,D,46.63990665254033,51.18154095913649,2.3319953326270166,0.8039577653831413,C,3950,Incorrect
2,relearn,5,176,D,52.494192974069364,46.99677589675727,2.6247096487034685,0.7382236294982925,C,1531,Incorrect
2,relearn,5,177,D,38.758525916081396,24.557269242594767,1.9379262958040697,0.38574468322381156,D,3303,Correct
2,relearn,5,178,C,90.9666085531184,43.72693732917517,4.54833042765592,0.68686112538659,C,1557,Correct
2,relearn,5,179,B,41.95233755931959,72.47614876316817,2.0976168779659794,1.1384526825742505,B,4110,Correct
2,relearn,5,180,A,41.292930248887345,63.71855490785897,2.064646512444367,1.000888719979438,B,2456,Incorrect
2,relearn,5,181,A,10.808285225273677,29.892567172681026,0.5404142612636839,0.46955134713317065,A,1741,Correct
2,relearn,5,182,A,24.533030291621134,76.18709259686231,1.2266515145810566,1.1967440520033399,B,2492,Incorrect
2,relearn,5,183,B,59.124682622047196,77.25911879516623,2.9562341311023594,1.2135834001485766,B,1990,Correct
2,relearn,5,184,C,58.043630291764096,51.9178779137611,2.902181514588205,0.8155241192192183,C,5525,Correct
2,relearn,5,185,C,75.8852832891412,73.47395927401588,3.7942641644570596,1.1541262534270196,B,3479,Incorrect
2,relearn,5,186,C,74.11219644443408,32.67263607521311,3.7056098222217035,0.5132205673365119,C,1324,Correct
2,relearn,5,187,D,45.396370435830434,23.14135912884138,2.2698185217915214,0.3635036191662559,D,4294,Correct
2,relearn,5,188,D,30.99983155330177,18.802489892220862,1.5499915776650885,0.295348820572987,D,1684,Correct
2,relearn,5,189,B,43.529245236230615,59.91454289140515,2.176462261811531,0.9411354389541449,D,3910,Incorrect
2,relearn,5,190,A,4.3116684550439075,34.23861203099221,0.21558342275219539,0.5378188601283811,A,1293,Correct
2,relearn,5,191,A,28.692608948491124,50.59939592891256,1.4346304474245561,0.7948134526317648,B,9115,Incorrect
2,relearn,5,192,D,58.39065636396239,23.461657270751314,2.9195328181981197,0.3685348506141694,C,1311,Incorrect
2,relearn,5,193,B,26.017202610414554,75.436591225138,1.3008601305207277,1.184955204023749,B,2581,Correct
2,relearn,5,194,A,17.482719112382263,50.000786651981784,0.8741359556191131,0.7854105200978828,A,2933,Correct
2,relearn,5,195,A,12.754167044690789,63.53876254263816,0.6377083522345395,0.9980645481106919,A,1783,Correct
2,relearn,5,196,C,76.90077994062315,27.324272597241684,3.8450389970311574,0.4292086702808968,D,3284,Incorrect
2,relearn,5,197,C,84.65278112430339,30.763639311862406,4.232639056215169,0.4832341162991655,C,1188,Correct
2,relearn,5,198,A,21.201378270529812,62.63135053679124,1.0600689135264907,0.9838109536539525,A,4567,Correct
2,relearn,5,199,D,46.152563674070066,43.38877838789104,2.3076281837035033,0.6815493371581703,B,7135,Incorrect
2,relearn,5,200,B,64.13622152159628,94.59342234265058,3.206811076079814,1.4858700035479384,B,2428,Correct
2,relearn,5,201,D,49.305063824773875,28.943856872810667,2.4652531912386935,0.45464904059088224,D,4254,Correct
2,relearn,5,202,D,46.98615300466935,26.667187577039876,2.3493076502334675,0.4188872029196474,D,1773,Correct
2,relearn,5,203,A,45.282057796722896,50.86880584195711,2.2641028898361446,0.79904533364989,D,3216,Incorrect
2,relearn,5,204,A,24.427131819167254,27.267624322641662,1.2213565909583628,0.42831884126428704,A,5381,Correct
2,relearn,5,205,C,68.5821091873631,64.86989517782638,3.4291054593681554,1.0189739306489967,C,1989,Correct
2,relearn,5,206,D,40.839585490793134,33.86923786868108,2.0419792745396568,0.5320167443546685,D,7406,Correct
2,relearn,5,207,D,58.100895935259196,15.253828608359212,2.90504479676296,0.2396065794756956,D,1516,Correct
2,relearn,5,208,A,17.790717574810582,31.305202025111907,0.8895358787405292,0.49174096350617935,A,5576,Correct
2,relearn,5,209,C,100.35823087735892,53.058090158009456,5.017911543867946,0.833434531269537,C,2781,Correct
2,relearn,5,210,A,38.672848083102586,61.01073955924046,1.9336424041551294,0.9583544559469501,B,5205,Incorrect
2,relearn,5,211,A,16.917993792039795,36.50039866329493,0.8458996896019897,0.5733469214685303,A,1959,Correct
2,relearn,5,212,C,79.91650697277183,37.92251013649954,3.9958253486385913,0.5956853962525571,C,6493,Correct
2,relearn,5,213,C,60.67384945189268,46.777810750910135,3.033692472594634,0.7347841330303647,C,2541,Correct
2,relearn,5,214,B,47.325681666129626,88.86294793628358,2.3662840833064815,1.3958559220648037,B,4175,Correct
2,relearn,5,215,D,41.69895179424822,14.81808917411292,2.084947589712411,0.23276200044815798,D,1709,Correct
2,relearn,5,216,C,84.1855404334068,58.84048237040672,4.20927702167034,0.9242641357427474,C,2510,Correct
2,relearn,5,217,A,31.72182698229265,43.06291461196646,1.5860913491146327,0.6764306809355919,A,8141,Correct
2,relearn,5,218,A,10.970976296662693,62.87968335479458,0.5485488148331347,0.9877117564373753,A,1459,Correct
2,relearn,5,219,D,41.95438649439606,6.376127000702009,2.097719324719803,0.10015596871880478,D,1801,Correct
2,relearn,5,220,B,27.902006013261506,73.1497739168914,1.3951003006630753,1.1490339617453016,A,5286,Incorrect
2,relearn,5,221,C,95.92652142198952,41.742993334386625,4.796326071099475,0.6556974059907836,C,1460,Correct
2,relearn,5,222,D,72.98716480472459,34.10873085593495,3.649358240236229,0.5357786914013837,C,1406,Incorrect
2,relearn,5,223,B,48.6342169222526,60.467585598739,2.43171084611263,0.9498226134865521,B,4461,Correct
2,relearn,5,224,A,46.65646592532855,51.44678567270469,2.3328232962664273,0.8081242196008884,B,4471,Incorrect
2,relearn,5,225,B,74.43534200549622,85.43175864143727,3.7217671002748114,1.3419589266559782,B,1822,Correct
2,relearn,5,226,C,86.11957570363674,48.028603119136626,4.305978785181837,0.7544315336062971,C,1388,Correct
2,relearn,5,227,D,50.91503447510664,28.349269722503877,2.5457517237553318,0.4453092874742687,D,3381,Correct
2,relearn,5,228,D,56.34365482775525,21.795496023159068,2.8171827413877626,0.34236285093851043,D,1574,Correct
2,relearn,5,229,B,57.97338800883193,87.69450651748456,2.8986694004415967,1.3775020871775585,B,1895,Correct
2,relearn,5,230,C,78.14710640449768,65.44563268799756,3.907355320224884,1.0280175943107457,C,3844,Correct
2,relearn,5,231,B,64.83718150676299,58.7226858598097,3.2418590753381493,0.922413792481197,C,4215,Incorrect
2,relearn,5,232,A,33.561507074926695,29.482168375202132,1.6780753537463347,0.4631048178971617,D,3020,Incorrect
2,relearn,5,233,A,25.369331723824565,25.688796695165497,1.268466586191228,0.4035186748854684,A,1584,Correct
2,relearn,5,234,D,40.864921104958626,2.9802728207845703,2.0432460552479315,0.046814015997350675,D,1461,Correct
2,relearn,5,235,D,54.58049002913461,43.72624381715838,2.7290245014567303,0.6868502317253043,C,11396,Incorrect
2,relearn,5,236,A,15.973018731511225,56.69714493882755,0.7986509365755612,0.8905966700966816,A,2375,Correct
2,relearn,5,237,B,30.239378981138017,72.45494885382728,1.511968949056901,1.13811967517704,B,1750,Correct
2,relearn,5,238,B,51.56380195830213,71.84125636763807,2.5781900979151064,1.1284798161461633,B,1596,Correct
2,relearn,5,239,B,62.64097849068263,64.01137748088115,3.1320489245341316,1.0054883662004968,B,3071,Correct
2,relearn,5,240,B,41.066843271782446,91.91946273259943,2.053342163589122,1.4438675442132756,B,1190,Correct
2,relearn,5,241,A,34.73974459558343,33.43818931872602,1.7369872297791715,0.5252458495652716,A,8174,Correct
2,relearn,5,242,B,40.35616655005437,77.77632693326822,2.0178083275027183,1.221707686583767,B,1700,Correct
2,relearn,5,243,A,18.10828794507777,59.7227037880847,0.9054143972538884,0.938122037365831,A,1744,Correct
2,relearn,5,244,B,31.493566740023994,64.15756020507665,1.5746783370011996,1.0077845990625685,B,4371,Correct
2,relearn,5,245,C,58.236180085268984,31.250457326620463,2.911809004263449,0.49088103579316084,C,4863,Correct
2,relearn,5,246,B,40.01364373642832,55.674272056645904,2.000682186821416,0.8745294204355915,B,17422,Correct
2,relearn,5,247,A,29.944711619519957,70.70732881718358,1.4972355809759978,1.110668123835109,B,3189,Incorrect
2,relearn,5,248,A,39.02688046697097,35.01490725857846,1.9513440233485486,0.5500128770483901,D,3788,Incorrect
2,relearn,5,249,D,26.92888531849827,22.96338906076506,1.3464442659249136,0.36070807187411863,A,1231,Incorrect
2,relearn,5,250,A,14.347049453497833,39.427843992542776,0.7173524726748917,0.6193311251692842,A,1624,Correct
2,relearn,5,251,A,44.449500751657624,48.07638039956988,2.2224750375828815,0.7551820173723852,C,5260,Incorrect
2,relearn,5,252,C,78.17587047250011,73.94977626002748,3.9087935236250053,1.161600369165556,C,1222,Correct
2,relearn,5,253,C,70.5461594985893,31.762536997401842,3.527307974929465,0.49892476445205813,C,1795,Correct
2,relearn,5,254,A,35.618455351666185,64.32004185926148,1.780922767583309,1.0103368549182192,B,4344,Incorrect
2,relearn,5,255,B,66.38325809524159,55.98770135380684,3.319162904762079,0.8794527563224944,C,3740,Incorrect
2,relearn,5,256,A,17.436912308969596,26.05096568255463,0.8718456154484798,0.4092076120361672,A,2709,Correct
2,relearn,5,257,D,65.58813125528495,10.65758406247968,3.2794065627642475,0.16740893897850914,C,2662,Incorrect
2,relearn,5,258,C,83.22646933642359,27.627784560770962,4.161323466821179,0.43397622505539785,C,1349,Correct
2,relearn,5,259,C,63.50747763026351,29.430879110430602,3.1753738815131753,0.46229916801009047,C,1918,Correct
2,relearn,5,260,C,59.65362946362973,30.315143778016598,2.9826814731814864,0.4761891649276763,C,2421,Correct
2,relearn,5,261,D,38.4038457602627,42.52870175968798,1.9201922880131348,0.6680392850747354,B,4636,Incorrect
2,relearn,5,262,B,59.0978675423645,79.15443033731877,2.954893377118225,1.2433548842340285,B,3735,Correct
2,relearn,5,263,C,85.72509182206257,49.16957524556075,4.286254591103128,0.7723538818579209,C,1844,Correct
2,relearn,5,264,A,37.680403328290936,67.78031899522361,1.8840201664145468,1.064690761066836,B,2062,Incorrect
2,relearn,5,265,B,64.08802620743538,64.00697793811827,3.204401310371769,1.0054192583443815,C,3654,Incorrect
2,relearn,5,266,A,47.73736987269295,52.727922310281414,2.3868684936346476,0.8282482668451673,C,2495,Incorrect
2,relearn,5,267,B,32.519131105234386,74.48774731161166,1.6259565552617192,1.1700507986830604,A,1830,Incorrect
2,relearn,5,268,C,78.84393234796565,74.99048029003254,3.9421966173982823,1.1779477098416822,C,1476,Correct
2,relearn,5,269,C,54.87937368428251,44.82037854378939,2.743968684214126,0.7040368598214117,A,3420,Incorrect
2,relearn,5,270,A,37.77294238424473,67.08983568812627,1.8886471192122365,1.053844674641819,B,1537,Incorrect
2,relearn,5,271,A,8.150082208000764,64.43174636369143,0.40750411040003826,1.0120915051706694,A,2374,Correct
2,relearn,5,272,A,33.83652352135182,62.37548007041463,1.691826176067591,0.9797917497667559,C,2987,Incorrect
2,relearn,5,273,B,29.911425422866227,81.66900493020533,1.4955712711433113,1.2828537295736084,B,1541,Correct
2,relearn,5,274,B,42.45849479811473,50.72470553480785,2.122924739905736,0.7967818113182893,A,11963,Incorrect
2,relearn,5,275,D,54.281839632420684,36.66195741427167,2.714091981621034,0.5758846803944886,C,4151,Incorrect
2,relearn,5,276,A,18.125197242389874,45.82768227421957,0.9062598621194937,0.7198595498186768,A,1312,Correct
2,relearn,5,277,B,54.003712630396215,61.69174024759867,2.700185631519811,0.9690515897451288,B,5732,Correct
2,relearn,5,278,C,86.74121876599625,47.621455905921145,4.337060938299812,0.7480360801364606,C,1958,Correct
2,relearn,5,279,C,60.2323489886957,31.463289012527348,3.0116174494347847,0.4942241880976418,D,3691,Incorrect
2,relearn,5,280,A,45.24822832678128,61.600954064743334,2.2624114163390643,0.9676255237195998,B,2526,Incorrect
2,relearn,5,281,B,42.71369026920484,79.65384154685357,2.1356845134602422,1.2511996171690032,B,1621,Correct
2,relearn,5,282,D,73.24772872174945,11.993736567688302,3.662386436087473,0.18839717345070414,D,4600,Correct
2,relearn,5,283,A,27.69482401792897,51.12176168170948,1.3847412008964486,0.8030187546891334,A,2340,Correct
2,relearn,5,284,B,39.4653585267784,66.34327924659792,1.9732679263389201,1.042117793480841,B,2528,Correct
2,relearn,5,285,D,40.81067171521832,37.51922338150532,2.040533585760916,0.5893505827186575,A,11874,Incorrect
2,relearn,5,286,B,31.891616895731403,88.9558284964114,1.5945808447865701,1.3973148864915983,B,1558,Correct
2,relearn,5,287,C,83.22979258450582,38.59481814387982,4.161489629225291,0.6062459857372344,C,1510,Correct
2,relearn,5,288,B,35.267467916657736,69.73503011222213,1.7633733958328868,1.0953952914921001,B,1670,Correct
2,relearn,5,289,B,67.44635815627576,65.03111408762554,3.3723179078137884,1.0215063513622205,C,1943,Incorrect
2,relearn,5,290,D,39.64538351792603,41.51642651253893,1.9822691758963016,0.652138502675464,C,1954,Incorrect
2,relearn,5,291,C,74.62568116132485,48.71410548581835,3.7312840580662425,0.765199379602226,C,1173,Correct
2,relearn,5,292,B,29.42370776465738,70.33142619795585,1.471185388232869,1.104763459299954,B,1357,Correct
2,relearn,5,293,B,66.48874943887154,86.34975358736934,3.3244374719435767,1.3563787575468418,B,1982,Correct
2,relearn,5,294,D,56.65280281505602,27.402147741351307,2.832640140752801,0.430431930184057,D,13679,Correct
2,relearn,5,295,D,34.17496943072734,44.586406614468345,1.708748471536367,0.7003616373499055,A,2974,Incorrect
2,relearn,5,296,A,8.691790703384338,59.96342711843784,0.43458953516921695,0.9419033105967565,A,835,Correct
2,relearn,5,297,B,38.61028915401781,89.97047260984438,1.9305144577008906,1.413252878955444,B,1277,Correct
2,relearn,5,298,C,74.69011237840449,63.733678769722154,3.7345056189202244,1.0011262850460545,C,1648,Correct
2,relearn,5,299,C,57.59898301429601,32.374495350376236,2.8799491507148,0.5085373837820945,D,1726,Incorrect
2,relearn,5,300,A,19.295557007016406,27.165822175599782,0.9647778503508203,0.4267197368779548,D,2719,Incorrect
2,relearn,5,301,C,82.38191210954302,43.02637341021146,4.119095605477151,0.6758566930806578,C,1188,Correct
2,relearn,5,302,D,62.24098797713445,19.767801021409035,3.1120493988567226,0.31051189233241716,D,1579,Correct
2,relearn,5,303,D,58.93464227059904,32.6490029347197,2.9467321135299525,0.512849338833735,C,1822,Incorrect
2,relearn,5,304,A,25.928270197069487,56.656862571957,1.2964135098534744,0.889963916157533,A,2256,Incorrect
2,relearn,5,305,B,44.76297297518484,94.49514393640065,2.2381486487592417,1.4843262499525318,B,1142,Incorrect
2,relearn,5,306,A,34.884880505658685,39.86367652354726,1.7442440252829343,0.6261771665572798,A,8563,Correct
2,relearn,5,307,D,40.963111929983995,29.8700231307309,2.0481555964991998,0.46919722615030696,D,2832,Correct
2,relearn,5,308,A,29.492921132387547,30.189479545635994,1.4746460566193773,0.47421523578134683,A,2326,Correct
2,relearn,5,309,C,88.74748118315236,39.671903610119976,4.437374059157618,0.6231648046773764,C,1342,Incorrect
2,relearn,5,310,A,42.323629237098835,35.61982787369104,2.1161814618549415,0.5595149478506035,D,12019,Incorrect
2,relearn,5,311,C,73.14156760092355,54.48885395325858,3.657078380046178,0.8559089164104214,C,2254,Incorrect
2,relearn,5,312,B,38.2582190101234,95.04878872126048,1.91291095050617,1.4930228818966018,B,1645,Incorrect
2,relearn,5,313,A,27.531580665476802,74.79179192695861,1.3765790332738401,1.1748267203327478,B,9310,Incorrect
2,relearn,5,314,D,45.376443798889674,9.124728014108014,2.268822189944484,0.14333089247563358,D,1676,Incorrect
2,relearn,5,315,A,22.867810989392236,71.29099519659687,1.143390549469612,1.1198363338836697,A,4079,Incorrect
2,relearn,5,316,D,35.30528436632766,43.733696570211016,1.7652642183163831,0.6869672992965002,D,6156,Incorrect
2,relearn,5,317,B,37.66037409813056,66.93155801238173,1.883018704906528,1.0513584547250876,B,3471,Incorrect
2,relearn,5,318,D,61.43376195484527,26.35239146905517,3.0716880977422636,0.4139423972185303,D,3117,Incorrect
2,relearn,5,319,A,25.151310677487338,66.54469557221576,1.257565533874367,1.0452816337252113,A,2838,Correct
2,relearn,5,320,D,69.16146546904741,21.300157155080935,3.4580732734523707,0.3345820861935517,C,1709,Incorrect
2,relearn,5,321,D,65.946566061411,20.44183244314816,3.29732830307055,0.3210995531465388,D,1800,Incorrect
2,relearn,5,322,C,96.02863037600572,52.3839535860526,4.801431518800286,0.8228452187596577,C,1229,Incorrect
2,relearn,5,323,B,25.184513083433618,82.63955810186661,1.2592256541716809,1.2980991431436553,B,1684,Correct
2,relearn,5,324,A,47.65752594509884,56.27386852974847,2.382876297254942,0.8839478598106781,D,4542,Correct
2,relearn,5,325,A,31.13654905437633,74.50487170957729,1.5568274527188166,1.17031978809729,B,1692,Incorrect
2,relearn,5,326,D,53.91028089662272,48.80506899521191,2.6955140448311363,0.7666282310665036,C,4072,Incorrect
2,relearn,5,327,A,43.37412266411725,35.90815948575603,2.1687061332058626,0.564044050221909,D,8092,Incorrect
2,relearn,5,328,B,36.0128517525133,54.43841019522205,1.800642587625665,0.8551165477120864,A,6326,Incorrect
2,relearn,5,329,C,59.692231973222874,63.90108368870874,2.984611598661144,1.0037558753643696,C,3030,Incorrect
2,relearn,5,330,A,34.37330284046715,59.52057213693335,1.7186651420233574,0.9349469608142558,B,6987,Correct
2,relearn,5,331,A,18.911873697713137,75.55784119611711,0.9455936848856568,1.1868597941141286,A,2180,Correct
2,relearn,5,332,C,65.52768032355546,57.996747057472604,3.2763840161777726,0.911010772439307,C,3649,Incorrect
2,relearn,5,333,B,75.24954592525711,82.36234918658383,3.7624772962628557,1.2937447556848451,B,1886,Incorrect
2,relearn,5,334,B,58.2094966019689,58.66950710753963,2.910474830098445,0.9215784625939034,C,1284,Correct
2,relearn,5,335,B,69.88031789176873,87.05479480389087,3.4940158945884368,1.367453519078352,C,2438,Incorrect
2,relearn,5,336,D,45.26731183764828,18.56146507863015,2.2633655918824136,0.29156281165443987,D,4350,Incorrect
2,relearn,5,337,D,66.27467918120081,41.44545981023179,3.3137339590600403,0.6510237603223761,C,3125,Incorrect
2,relearn,5,338,C,53.91633360074509,63.91002013483332,2.6958166800372543,1.0038962487318406,B,2102,Incorrect
2,relearn,5,339,B,60.33740803383164,89.50718323608308,3.016870401691582,1.4059755464899706,B,1917,Correct
2,relearn,5,340,C,61.317528990020165,39.78928182163976,3.0658764495010082,0.6250085773123869,C,6580,Incorrect
2,relearn,5,341,B,50.942672241952515,92.61689760524183,2.547133612097626,1.454822825574529,B,2021,Incorrect
2,relearn,5,342,D,46.08602837410486,35.21849255745782,2.304301418705243,0.5532107874450815,C,2277,Incorrect
2,relearn,5,343,C,81.99141968808472,57.21110096138664,4.099570984404235,0.8986698724203811,C,1631,Incorrect
2,relearn,5,344,A,22.30222135733148,49.874918121501466,1.1151110678665739,0.7834333818445073,A,2037,Correct
2,relearn,5,345,D,44.87657088664718,48.540878938273536,2.243828544332359,0.7624783433563583,B,16270,Incorrect
2,relearn,5,346,A,45.077821810979884,62.488115967080674,2.2538910905489944,0.9815610302942386,B,1550,Incorrect
2,relearn,5,347,C,86.03251652305349,68.83867299049521,4.301625826152674,1.0813153467490495,C,1886,Correct
2,relearn,5,348,D,33.10656577688877,9.807350016017791,1.6553282888444385,0.15405349380752614,D,1733,Incorrect
2,relearn,5,349,C,59.05474523674128,29.45068538256023,2.952737261837064,0.46261028420517764,D,2515,Incorrect
2,relearn,5,350,D,54.850673840079395,13.514523276226472,2.7425336920039696,0.2122856352068067,D,1943,Incorrect
2,relearn,5,351,D,55.75136854839804,28.907059666569005,2.7875684274199024,0.45407103142687505,D,3117,Correct
2,relearn,5,352,A,8.54688675127133,67.25894712626389,0.4273443375635665,1.056501070900275,A,1840,Incorrect
2,relearn,5,353,B,38.44312983845303,61.50708760057752,1.9221564919226517,0.966151072748391,B,4830,Incorrect
2,relearn,5,354,D,54.70449318495912,34.277644701059884,2.735224659247956,0.5384319838760542,C,8618,Incorrect
2,relearn,5,355,B,38.17421586693603,79.94402544287422,1.9087107933468017,1.2557578151486457,B,1625,Incorrect
2,relearn,5,356,C,73.34853439227676,58.60287409526887,3.6674267196138377,0.9205317936847214,C,1774,Correct
2,relearn,5,357,C,54.51875062283902,57.54152420466305,2.7259375311419514,0.9038601485886433,B,5477,Incorrect
2,relearn,5,358,D,44.646853738200186,51.024991787317326,2.2323426869100094,0.8014986967425781,A,4477,Correct
2,relearn,5,359,A,18.43838007714716,48.81717815838469,0.9219190038573579,0.7668184413568273,A,3790,Incorrect
2,relearn,5,360,A,30.637622129579164,30.200892362214564,1.5318811064789584,0.47439450788494686,D,10501,Incorrect
2,relearn,5,361,B,75.66908736129719,82.66168565541949,3.78345436806486,1.2984467219420732,C,1270,Incorrect
2,relearn,5,362,D,46.066466246708075,20.006818385500097,2.3033233123354035,0.31426636830796156,D,2037,Correct
2,relearn,5,363,D,49.380837639283904,6.381606230263248,2.4690418819641953,0.10024203625548937,D,1383,Incorrect
2,relearn,5,364,B,38.751027945509115,71.70364534606624,1.9375513972754559,1.1263182272740482,B,2812,Correct
2,relearn,5,365,A,23.508919587130052,37.022739410374356,1.1754459793565026,0.581551830737007,A,6005,Correct
2,relearn,5,366,D,40.17661630962583,22.4730370098791,2.0088308154812915,0.35300563987043854,D,18624,Correct
2,relearn,5,367,A,46.23398879026248,66.39023177008433,2.311699439513124,1.0428553219951031,B,2924,Correct
2,relearn,5,368,C,87.91839293422815,45.39395120614632,4.395919646711408,0.713046518133214,C,1379,Incorrect
2,relearn,5,369,B,66.02997265842133,90.58791255032592,3.3014986329210667,1.4229516028606926,B,1620,Correct
2,relearn,5,370,A,23.39875474680105,59.22441851856903,1.1699377373400524,0.9302949906553188,A,1902,Correct
2,relearn,5,371,C,72.5176502113333,37.689839284826235,3.625882510566665,0.5920306110609503,C,3094,Incorrect
2,relearn,5,372,B,40.1669248779702,85.36370414236946,2.00834624389851,1.3408899290844023,B,1406,Incorrect
2,relearn,5,373,C,55.45184658845385,63.434025485212835,2.7725923294226926,0.9964193422598618,B,3309,Incorrect
2,relearn,5,374,C,71.26630717476034,50.15925268764951,3.5633153587380173,0.7878996987653691,C,2669,Incorrect
2,relearn,5,375,A,15.088042643115468,72.42433290226066,0.7544021321557735,1.1376387609344183,A,2448,Correct
2,relearn,5,376,B,58.21740157647744,71.3665479232027,2.910870078823872,1.1210231133379875,B,3756,Incorrect
2,relearn,5,377,D,39.253132758763556,10.795521728442328,1.962656637938178,0.16957565876871702,D,1933,Incorrect
2,relearn,5,378,A,37.30468092426172,58.98145222797551,1.865234046213086,0.926478485087326,B,4997,Incorrect
2,relearn,5,379,D,71.61276850229706,23.227698984555452,3.580638425114853,0.3648598424483725,C,2476,Incorrect
2,relearn,5,380,B,41.39256351176162,78.76488505798362,2.069628175588081,1.237235921295029,B,3206,Correct
2,relearn,5,381,D,36.89076966130814,24.43417628424296,1.844538483065407,0.3838111435554782,D,2564,Correct
2,relearn,5,382,A,41.112566739043515,43.9332616324265,2.055628336952176,0.6901020599633472,A,4223,Correct
2,relearn,5,383,A,32.099335832163135,74.61062903862762,1.604966791608157,1.1719810203373293,A,3031,Correct
2,relearn,5,384,D,48.56811133601238,7.511715093948979,2.428405566800619,0.11799374477504837,D,1988,Incorrect
2,relearn,5,385,A,33.6568794126819,28.74629592993676,1.6828439706340952,0.4515457605570375,A,4335,Incorrect
2,relearn,5,386,A,40.02744926540436,64.51719293280256,2.0013724632702177,1.0134336967396393,B,1605,Incorrect
2,relearn,5,387,C,86.67584886400743,53.93667474931428,4.333792443200371,0.8472353057575391,C,1295,Incorrect
2,relearn,5,388,C,55.8448877276482,48.79823322309874,2.79224438638241,0.7665208550092419,B,2835,Incorrect
2,relearn,5,389,B,66.0945027895853,80.6106839994034,3.3047251394792654,1.2662296632668701,B,1501,Correct
2,relearn,5,390,A,36.53768149246554,60.20371723123617,1.8268840746232768,0.945677778862244,A,1551,Correct
2,relearn,5,391,A,-1.1102241832777295,51.85091957964102,-0.05551120916388648,0.8144723401663769,A,1941,Incorrect
2,relearn,5,392,B,49.67933441581015,54.9030228466213,2.483966720790508,0.8624146661740902,B,7253,Correct
2,relearn,5,393,A,38.48485400417423,56.61384776853409,1.9242427002087115,0.8892882412053881,A,4246,Correct
2,relearn,5,394,A,18.64336379749003,43.83884923171284,0.9321681898745013,0.688619033440898,A,1965,Incorrect
2,relearn,5,395,A,29.668368923629366,38.23728564531969,1.4834184461814683,0.600629878382754,D,5639,Incorrect
2,relearn,5,396,D,60.00946758926771,18.143422291123294,3.000473379463385,0.28499621090385113,D,4427,Incorrect
2,relearn,5,397,C,82.39527847231382,52.15958560289933,4.11976392361569,0.8193208547217823,C,3023,Incorrect
2,relearn,5,398,C,48.41837542821523,52.78239340752896,2.4209187714107614,0.8291038968398966,C,9868,Incorrect
2,relearn,5,399,C,63.06238818791708,58.9162782951385,3.153119409395854,0.9254547353442943,C,1446,Incorrect
2,relearn,5,400,B,24.966179838875505,71.82299213463604,1.2483089919437753,1.1281929222450502,A,3021,Incorrect
2,relearn,5,401,D,41.13776110473711,3.8296998051013986,2.0568880552368554,0.06015678386580408,D,1717,Incorrect
2,relearn,5,402,D,49.88500035530173,13.330254851853613,2.4942500177650864,0.20939115356531504,C,1621,Incorrect
2,relearn,5,403,C,68.5358877897002,40.654189405231605,3.42679438948501,0.638594513865618,C,1629,Incorrect
2,relearn,5,404,C,59.038878080557225,32.949291030124584,2.951943904027861,0.5175662532061573,B,3125,Incorrect
2,relearn,5,405,D,53.628340927591296,9.350027159422112,2.681417046379565,0.14686988317452773,D,1335,Incorrect
2,relearn,5,406,D,73.64827108749319,27.706217580072853,3.6824135543746594,0.43520824804158614,D,1414,Correct
2,relearn,5,407,A,43.8331794514065,60.5456913503626,2.191658972570325,0.9510494957640712,A,3150,Correct
2,relearn,5,408,B,52.88718189347697,88.73835905961592,2.644359094673849,1.3938988845665132,B,1325,Correct
2,relearn,5,409,D,48.85774613920405,17.653366417961905,2.4428873069602024,0.27729843124898945,C,2231,Incorrect
2,relearn,5,410,B,51.64263586164905,72.08214095541213,2.582131793082452,1.1322636224027336,B,1318,Correct
2,relearn,5,411,D,37.50740828886103,9.754456352390019,1.8753704144430514,0.15322264208215386,C,1437,Correct
2,relearn,5,412,B,62.06889926569889,95.85267248873134,3.1034449632849443,1.5056502585877345,B,2686,Incorrect
2,relearn,5,413,A,22.604375420865765,59.19043362909687,1.1302187710432883,0.9297611572598249,A,2371,Correct
2,relearn,5,414,C,55.95679274119769,62.822329974735865,2.797839637059884,0.9868108516501203,D,2879,Incorrect
2,relearn,5,415,C,69.89423598407456,58.975424676374274,3.4947117992037278,0.926383804528178,D,1268,Incorrect
2,relearn,5,416,B,44.76193576875188,81.51332355597434,2.238096788437594,1.280408292265684,B,1630,Incorrect
2,relearn,5,417,D,55.223107086245705,-0.866612127005034,2.7611553543122853,-0.013612711458554198,C,1694,Incorrect
2,relearn,5,418,D,41.62825595072588,25.51281486241588,2.0814127975362937,0.40075435872081117,D,1994,Correct
2,relearn,5,419,C,64.52514978417786,33.64436764946275,3.226257489208893,0.5284844912111314,C,1919,Incorrect
2,relearn,5,420,C,62.41813194871327,71.41737433285246,3.1209065974356633,1.1218214927138077,B,1869,Incorrect
2,relearn,5,421,C,87.710064410667,69.51579976912969,4.38550322053335,1.0919516293155844,C,1389,Incorrect
2,relearn,5,422,B,63.97153177784112,96.01882236256772,3.198576588892056,1.5082601347029305,B,1645,Correct
2,relearn,5,423,B,67.27256157109763,70.67187554319071,3.3636280785548816,1.1101112251095004,D,1622,Correct
2,relearn,5,424,A,13.137386641444857,38.12738839285355,0.6568693320722429,0.5989036163777673,A,2237,Incorrect
2,relearn,5,425,C,75.14870252482994,38.29821796783427,3.7574351262414973,0.6015870010666438,D,3934,Correct
2,relearn,5,426,A,41.84628508528677,59.97814846206769,2.092314254264339,0.9421345529217492,B,8873,Incorrect
2,relearn,5,427,A,32.25137106862346,69.8028344443916,1.6125685534311731,1.0964603594512263,A,2164,Incorrect
2,relearn,5,428,C,90.04465803311163,64.12714282817952,4.5022329016555815,1.0073068040235609,C,1597,Incorrect
2,relearn,5,429,B,64.62531693589163,74.14167642576992,3.2312658467945816,1.1646147299201517,D,1390,Incorrect
2,relearn,5,430,D,67.39848682756944,31.319157956945006,3.3699243413784723,0.49196018277078374,C,2406,Incorrect
2,relearn,5,431,C,95.66957029112437,46.043720944207195,4.783478514556219,0.7232530773112991,C,1213,Incorrect
2,relearn,5,432,A,42.61242482458677,31.25670039103991,2.1306212412293384,0.490979101619741,D,1780,Incorrect
2,relearn,5,433,A,16.387270939952266,69.88074937653032,0.8193635469976133,1.0976842443432857,A,3158,Incorrect
2,relearn,5,434,C,70.43906970249363,28.78006632865251,3.521953485124681,0.45207622473960846,D,3972,Correct
2,relearn,5,435,C,64.59396189819506,51.02997671846235,3.229698094909753,0.8015769998578974,B,2152,Incorrect
2,relearn,5,436,C,93.3843332668792,38.94822980936105,4.66921666334396,0.6117973631970783,C,1364,Correct
2,relearn,5,437,D,55.51959114371957,1.2266075358645416,2.7759795571859787,0.019267506117549613,D,1648,Correct
2,relearn,5,438,B,57.64720229153717,53.86562992932238,2.8823601145768585,0.8461193363347286,B,3596,Correct
2,relearn,5,439,A,21.028327875722216,63.50225012826118,1.0514163937861107,0.9974910124468342,A,1686,Correct
2,relearn,5,440,A,19.740620396722555,26.370970742028472,0.9870310198361278,0.4142342397559401,A,2540,Incorrect
2,relearn,5,441,C,71.96074697990319,30.72789443355507,3.5980373489951596,0.4826726370636965,C,1558,Correct
2,relearn,5,442,C,99.33204655892817,45.769703047422986,4.966602327946408,0.718948814253852,C,1261,Correct
2,relearn,5,443,D,30.799782990509687,28.311233115201848,1.5399891495254843,0.44471180984393094,A,2718,Incorrect
2,relearn,5,444,D,43.64627757206877,3.6062188030544675,2.182313878603438,0.05664635249456646,D,1469,Incorrect
2,relearn,5,445,C,75.58511471638658,55.030082750461034,3.779255735819329,0.8644105184764339,C,1374,Correct
2,relearn,5,446,C,52.92712687619319,63.25214498779141,2.6463563438096593,0.9935623700872096,B,2171,Incorrect
2,relearn,5,447,A,34.017719730630475,75.0512408773144,1.7008859865315236,1.1789021349148443,B,1520,Incorrect
2,relearn,5,448,B,63.25356571658547,89.31760699970286,3.1626782858292732,1.4029976899324341,B,1301,Incorrect
2,relearn,5,449,B,26.063112686190646,74.18646140208013,1.3031556343095323,1.1653182106829882,B,2084,Correct
2,relearn,5,450,A,14.281138780943373,26.00098901915807,0.7140569390471686,0.4084225804432794,A,1414,Incorrect
2,relearn,5,451,A,46.344661586713706,50.01788301556612,2.317233079335685,0.785679069149081,B,3748,Incorrect
2,relearn,5,452,A,40.73068173603663,41.19721644542887,2.036534086801831,0.6471243626665398,D,4167,Incorrect
2,relearn,5,453,A,46.30341395108955,63.02114264683822,2.315170697554478,0.9899337938007068,B,3125,Incorrect
2,relearn,5,454,A,40.66704696332495,66.91783797318976,2.033352348166247,1.0511429408534252,A,8021,Incorrect
2,relearn,5,455,D,71.15898535196489,21.040003973433702,3.5579492675982443,0.33049560957219687,D,1701,Correct
2,relearn,5,456,B,64.60611202028211,95.06794482893784,3.2303056010141056,1.4933237853323542,B,1622,Correct
2,relearn,5,457,B,71.13448908496395,79.67269357834334,3.5567244542481973,1.2514957441871708,B,1604,Incorrect
2,relearn,5,458,C,96.04809934501287,41.96022050024203,4.802404967250643,0.659109602332841,C,1943,Correct
2,relearn,5,459,A,17.952768944064566,65.97385680489307,0.8976384472032283,1.0363149193361854,A,2220,Incorrect
2,relearn,5,460,A,26.20360479015088,36.43315880203998,1.3101802395075441,0.5722907201977956,D,3422,Correct
2,relearn,5,461,B,44.837394679490345,50.526359756314974,2.241869733974517,0.7936662031153705,B,5174,Incorrect
2,relearn,5,462,C,98.18124029453253,54.069902032111116,4.909062014726627,0.8493280350220006,C,1998,Correct
2,relearn,5,463,D,68.06477945131113,18.864417502740913,3.403238972565556,0.29632157720430785,D,2516,Incorrect
2,relearn,5,464,C,74.00635420924927,64.78963715261838,3.700317710462463,1.0177132405370712,B,2245,Incorrect
2,relearn,5,465,C,64.85543810090614,60.785800531482224,3.2427719050453074,0.9548211219613955,B,1798,Correct
2,relearn,5,466,C,65.90854021281824,50.82997313085674,3.2954270106409123,0.7984353508503307,C,4061,Correct
2,relearn,5,467,C,72.79085243840402,44.95906103462956,3.639542621920201,0.7062152792934367,C,2809,Correct
2,relearn,5,468,C,67.54196860353974,59.91030613088477,3.3770984301769875,0.9410688880755157,C,1533,Correct
2,relearn,5,469,B,68.05953751359702,64.08959179179956,3.402976875679851,1.006716953723431,C,1451,Incorrect
2,relearn,5,470,A,2.9666791462071274,50.17228079735528,0.14833395731035637,0.7881043438340779,A,1449,Incorrect
2,relearn,5,471,D,45.482201602497014,30.395124185748628,2.2741100801248506,0.47744549423448657,D,1844,Incorrect
2,relearn,5,472,C,55.745015406399865,37.45149290408167,2.7872507703199934,0.5882866748671662,D,1966,Incorrect
2,relearn,5,473,D,70.87842004514626,41.548372688137334,3.5439210022573127,0.6526403120283154,C,1724,Incorrect
2,relearn,5,474,C,55.03701462290844,67.20788149769416,2.751850731145422,1.0556989338824467,B,2615,Incorrect
2,relearn,5,475,B,54.69097744745733,92.22857208816927,2.7345488723728666,1.4487230226163461,B,1198,Correct
2,relearn,5,476,C,86.65742487234539,32.79148219868563,4.332871243617269,0.5150873978785563,C,1236,Incorrect
2,relearn,5,477,A,17.317728270890917,28.367725827435414,0.8658864135445458,0.4455991952926026,D,3990,Incorrect
2,relearn,5,478,B,32.99004466179663,75.3706752976384,1.6495022330898315,1.1839197990558126,B,1340,Correct
2,relearn,5,479,B,65.69771301451956,60.64104719817394,3.284885650725978,0.9525473419188758,B,1751,Correct
2,relearn,5,480,B,75.44472765720383,70.59193355305119,3.7722363828601915,1.1088554992648223,C,4767,Incorrect
2,relearn,5,481,D,33.85601562111959,43.995849458165665,1.6928007810559793,0.6910851872310787,A,3060,Incorrect
2,relearn,5,482,B,67.29106556855037,82.3468023793319,3.3645532784275183,1.293500547007598,B,2293,Correct
2,relearn,5,483,B,29.87732306782354,57.88765429351807,1.493866153391177,0.9092971473103101,A,5127,Incorrect
2,relearn,5,484,C,84.82936848330725,53.78630380101133,4.241468424165363,0.8448732844250296,C,1357,Incorrect
2,relearn,5,485,A,17.941562136042418,25.57514424439906,0.897078106802121,0.40173342636351683,A,2496,Correct
2,relearn,5,486,A,44.02276917426741,46.68485938892958,2.2011384587133707,0.7333240564506683,D,4758,Incorrect
2,relearn,5,487,D,39.769616791120484,27.402436505467584,1.9884808395560243,0.43043646608018865,C,1508,Correct
2,relearn,5,488,B,70.82066251029177,90.93815792581064,3.541033125514588,1.4284532443535758,B,2424,Incorrect
2,relearn,5,489,A,38.92322081496048,36.44264742804616,1.9461610407480239,0.572439767186564,D,7245,Incorrect
2,relearn,5,490,D,65.08191839211193,34.44494426928722,3.254095919605596,0.5410599193485129,C,1579,Incorrect
2,relearn,5,491,B,54.12632340457965,76.61975791794241,2.706316170228982,1.2035403429741813,B,1511,Incorrect
2,relearn,5,492,B,43.44179397044716,76.96835461789429,2.172089698522358,1.2090160871323536,B,1540,Correct
2,relearn,5,493,B,33.966961732195365,87.96893906744396,1.6983480866097682,1.3818128635918505,B,1727,Correct
2,relearn,5,494,C,64.74609688356219,49.25487962219904,3.2373048441781096,0.7736938398727506,C,5188,Incorrect
2,relearn,5,495,A,27.278330076211727,34.762972384666405,1.3639165038105865,0.546055493303064,D,1645,Incorrect
2,relearn,5,496,A,6.0750885732009365,31.142409385628284,0.3037544286600468,0.4891838227048782,A,1646,Incorrect
2,relearn,5,497,D,55.88790730577881,12.509123971579498,2.7943953652889406,0.19649285985979062,D,1558,Incorrect
2,relearn,5,498,C,57.81047349098522,62.48053179504931,2.890523674549261,0.981441898398552,C,7923,Incorrect
2,relearn,5,499,A,8.238098216473997,50.02801506879982,0.4119049108236999,0.7858382230691049,A,2185,Incorrect
2,relearn,5,500,C,67.59056634359106,24.336274484750763,3.379528317179553,0.38227330568518864,D,1507,Incorrect
2,relearn,5,501,C,73.5057946896515,68.23801922529208,3.675289734482575,1.0718802994684833,B,1641,Correct
2,relearn,5,502,A,27.436060173167544,56.46592091929023,1.3718030086583772,0.8869646116911218,A,1892,Incorrect
2,relearn,5,503,A,40.69375563135393,35.30192118438573,2.0346877815676963,0.5545212812523606,D,4990,Incorrect
2,relearn,5,504,A,40.707778200023135,66.96107956321364,2.035388910001157,1.051822178161168,D,2838,Incorrect
2,relearn,5,505,D,71.24408933925345,23.84707598922522,3.5622044669626725,0.37458899368673754,D,1629,Correct
2,relearn,5,506,D,42.786586005829044,34.10507103183029,2.139329300291452,0.5357212030187806,D,3718,Incorrect
2,relearn,5,507,A,30.79240864822022,58.88384056691038,1.539620432411011,0.9249452047007913,B,1463,Incorrect
2,relearn,5,508,B,64.84380916160323,55.42625172969123,3.2421904580801617,0.8706335262500827,C,1550,Correct
2,relearn,5,509,C,77.25598168130531,57.380744428899334,3.862799084065266,0.9013346257767181,C,1388,Correct
2,relearn,5,510,B,44.10736205576049,49.79217745901853,2.2053681027880243,0.7821336945574596,A,25670,Incorrect
2,relearn,5,511,A,26.882550337026046,61.206382515871965,1.3441275168513023,0.9614276083233507,B,2159,Correct
2,relearn,5,512,C,76.10007769504818,70.5141819161906,3.8050038847524092,1.107634179408993,B,2349,Incorrect
2,relearn,5,513,C,71.59385379197002,71.05720365028749,3.5796926895985006,1.1161639448618852,B,1509,Incorrect
2,relearn,5,514,B,49.4816348401779,96.39117645008359,2.4740817420088947,1.5141090590323005,B,1429,Correct
2,relearn,5,515,C,59.01425211381206,33.06649229088919,2.9507126056906032,0.5194072463052049,C,1406,Correct
2,relearn,5,516,A,20.615582906244722,23.947219157377635,1.0307791453122361,0.37616203889361166,A,3070,Correct
2,relearn,5,517,D,70.32245122252664,14.785407950466814,3.516122561126332,0.2322486449875733,C,8508,Incorrect
2,relearn,5,518,A,30.18360852349433,54.80534288257583,1.5091804261747166,0.8608803128868494,A,1776,Correct
2,relearn,5,519,D,69.10120672300798,15.880202437455713,3.4550603361503986,0.24944563657514796,D,2683,Correct
2,relearn,5,520,A,14.300089176305562,50.40218227948358,0.7150044588152781,0.7917156278705964,A,3152,Incorrect
2,relearn,5,521,C,59.11233836852496,67.22726775692364,2.955616918426248,1.0560034525303263,B,1413,Incorrect
2,relearn,5,522,A,35.56605804197047,30.43037691828089,1.7783029020985237,0.4779992428621982,C,4342,Correct
2,relearn,5,523,C,85.01534563998047,48.112003691160716,4.250767281999023,0.7557415867281777,C,6533,Incorrect
2,relearn,5,524,C,65.23660684708952,61.516175720815035,3.261830342354476,0.9662938286072564,C,7222,Incorrect
2,relearn,5,525,D,31.696125091113622,26.8217789171106,1.5848062545556811,0.42131551801102124,D,4462,Correct
2,relearn,5,526,B,44.19547930854619,55.459617469762556,2.2097739654273094,0.8711576340695308,B,4046,Correct
2,relearn,5,527,C,75.3333343256352,75.03902234901429,3.76666671628176,1.178710206721118,C,5204,Correct
2,relearn,5,528,A,32.790374203305014,43.373388035705766,1.6395187101652509,0.6813075860713632,A,2349,Incorrect
2,relearn,5,529,A,43.40812080598661,54.61837798498598,2.170406040299331,0.8579434751431123,B,17294,Incorrect
2,relearn,5,530,B,39.713557469097545,72.38709452679504,1.9856778734548772,1.1370538219004462,B,1603,Correct
2,relearn,5,531,A,9.178483751666505,41.235601869471225,0.45892418758332526,0.6477273194974218,A,4592,Correct
2,relearn,5,532,D,44.2932838677559,44.413563917644666,2.2146641933877955,0.697646630617066,C,11694,Incorrect
2,relearn,5,533,D,74.80701220068889,20.871721642071144,3.740350610034444,0.327852236892509,D,1539,Incorrect
2,relearn,5,534,A,13.99381890178078,52.23967324363273,0.6996909450890391,0.8205788684406394,A,2655,Correct
2,relearn,5,535,A,28.122015211073133,72.42580377029647,1.4061007605536566,1.1376618652754968,B,1653,Incorrect
2,relearn,5,536,D,24.98508834167585,20.777926775619903,1.2492544170837925,0.3263789105755707,D,2705,Incorrect
2,relearn,5,537,D,28.152866683288845,27.647511697828815,1.4076433341644423,0.4342860981996844,A,2227,Incorrect
2,relearn,5,538,B,43.49728960193016,67.44662093555525,2.1748644800965082,1.0594490442029794,B,2289,Incorrect
2,relearn,5,539,B,61.893449736932524,86.94436431867504,3.0946724868466267,1.3657188810729204,B,1533,Correct
2,relearn,5,540,A,13.29564898163914,50.01429542854681,0.664782449081957,0.7856227154639612,A,2196,Correct
2,relearn,5,541,D,70.33880498699236,37.90573533437368,3.5169402493496182,0.595421898276937,C,1773,Incorrect
2,relearn,5,542,B,62.82061286604644,62.82700137758382,3.141030643302322,0.9868842298744656,C,2397,Incorrect
2,relearn,5,543,B,62.932769226541176,79.9268849072403,3.146638461327059,1.255488572244515,B,1270,Correct
2,relearn,5,544,A,19.696249951130472,57.91122176671229,0.9848124975565236,0.9096673443135633,A,6390,Incorrect
2,relearn,5,545,A,12.259952586084008,59.59574822109057,0.6129976293042004,0.9361278239828255,A,2070,Incorrect
2,relearn,5,546,C,91.34876251436357,63.808755684163955,4.567438125718178,1.0023055904603773,C,1997,Incorrect
2,relearn,5,547,A,46.3079677624352,42.49865667346732,2.3153983881217597,0.6675673379639988,A,2212,Incorrect
2,relearn,5,548,B,48.57971587255327,71.6581110948912,2.4289857936276635,1.1256029769291573,B,5996,Incorrect
2,relearn,5,549,A,24.910151335290088,58.66258629750179,1.2455075667645046,0.9214697507640444,A,4144,Incorrect
2,relearn,5,550,A,24.300271164658053,75.52027594659566,1.2150135582329027,1.1862697205544945,B,1453,Incorrect
2,relearn,5,551,C,76.02805296960236,23.450104943868798,3.801402648480118,0.36835338708783955,C,2356,Correct
2,relearn,5,552,D,58.5784894294106,27.539322871758987,2.92892447147053,0.432586672093777,D,1716,Incorrect
2,relearn,5,553,B,30.283193118806707,61.90923240805387,1.5141596559403354,0.9724679486126259,B,3150,Incorrect
2,relearn,5,554,B,34.02524865455867,96.46013588250872,1.7012624327279338,1.515192271263813,B,1261,Correct
2,relearn,5,555,A,42.469735520712234,57.15938094738558,2.1234867760356115,0.8978574563402347,A,2615,Incorrect
2,relearn,5,556,C,59.924562753559925,48.551115546184576,2.9962281376779965,0.7626391396174135,C,2588,Incorrect
2,relearn,5,557,B,58.43014512857384,83.26435423466214,2.9215072564286917,1.3079134178475638,B,1472,Incorrect
2,relearn,5,558,B,44.45282309462446,87.62823205554629,2.2226411547312233,1.3764610503638293,B,2469,Correct
2,relearn,5,559,D,44.25143600946876,44.530786743861896,2.2125718004734383,0.6994879624654513,D,8172,Incorrect
2,relearn,5,560,A,42.686706100297116,61.46219092523813,2.1343353050148557,0.9654458374213069,B,1319,Incorrect
2,relearn,5,561,D,65.95091362088843,22.927802035503206,3.2975456810444213,0.3601490721884899,D,1534,Incorrect
2,relearn,5,562,C,67.87109249428576,61.34354909653531,3.3935546247142883,0.9635822159340006,C,1174,Correct
2,relearn,5,563,D,43.36763189311908,-0.1159914906764925,2.1683815946559544,-0.001821990074940989,D,2540,Correct
2,relearn,5,564,C,53.46839132260013,36.811712272343584,2.6734195661300064,0.5782370242042791,A,2901,Incorrect
2,relearn,5,565,A,28.642484219852616,25.926843861807004,1.4321242109926309,0.40725791103511244,A,1232,Correct
2,relearn,5,566,B,55.26705410769862,96.09310720410238,2.7633527053849307,1.5094269982651225,B,1261,Incorrect
2,relearn,5,567,B,24.863989053928876,70.5148949632022,1.2431994526964438,1.1076453799252597,A,5668,Correct
2,relearn,5,568,C,74.13060333776035,49.82723663882417,3.7065301668880175,0.7826844028660509,C,1917,Correct
2,relearn,5,569,B,39.580508439518894,59.35617306761319,1.9790254219759447,0.9323645862720897,D,4030,Incorrect
2,relearn,5,570,D,33.568116538467,25.75193286783589,1.67840582692335,0.40451041556665385,D,1191,Incorrect
2,relearn,5,571,D,45.94786567351262,9.62134648982051,2.2973932836756306,0.1511317572503103,D,1172,Incorrect
2,relearn,5,572,D,68.42636007429144,28.75693873406262,3.421318003714572,0.4517129373333144,C,1247,Incorrect
2,relearn,5,573,D,64.6177665850277,4.9583998465045305,3.230888329251385,0.07788636265669696,D,1174,Incorrect
2,relearn,5,574,D,52.38494134490121,20.223251222929065,2.6192470672450607,0.3176660873682738,D,6533,Incorrect
2,relearn,5,575,C,55.40035718880223,46.71435289982915,2.7700178594401113,0.7337873394365215,B,1334,Incorrect
2,relearn,5,576,C,76.80603292060232,44.86241302917016,3.840301646030116,0.70469713597376,C,2019,Incorrect
2,relearn,5,577,B,32.49889898886633,74.98448419212073,1.6249449494433166,1.1778535233559324,B,2176,Incorrect
2,relearn,5,578,B,31.436144122114335,90.28966047219966,1.571807206105717,1.4182666701728959,B,1491,Incorrect
2,relearn,5,579,B,56.85111831730823,68.68849095135545,2.8425559158654115,1.0789562927947363,C,1224,Incorrect
2,relearn,5,580,B,51.18399433617144,90.90986610929063,2.559199716808572,1.4280088375388957,C,2308,Incorrect
2,relearn,5,581,B,34.70773872843304,60.77227744706942,1.735386936421652,0.9546087018481697,A,3071,Incorrect
2,relearn,5,582,D,68.24177576588116,39.1773989866782,3.412088788294058,0.6153971442165223,C,1245,Incorrect
2,relearn,5,583,D,54.701389162606226,37.77296726431146,2.735069458130311,0.5933363823092432,D,1540,Incorrect
2,relearn,5,584,A,40.673258164684285,39.21214121700381,2.033662908234214,0.6159428738943236,D,1668,Incorrect
2,relearn,5,585,B,46.382616793413,73.9085003549717,2.3191308396706503,1.1609520087650884,B,2721,Correct
2,relearn,5,586,D,55.99423974830874,42.59045296885314,2.7997119874154373,0.669009270800053,C,4172,Correct
2,relearn,5,587,C,70.62585740383673,39.44847827565308,3.5312928701918365,0.6196552477304414,C,1679,Correct
2,relearn,5,588,C,56.71302253124879,67.08954494755548,2.8356511265624396,1.0538401076996127,B,1647,Incorrect
2,relearn,5,589,D,44.0150420630556,21.825319357451704,2.20075210315278,0.3428313147781069,D,1229,Correct
2,relearn,5,590,B,73.23125451267067,82.60458345592899,3.6615627256335337,1.2975497626899575,B,2207,Incorrect
2,relearn,5,591,D,68.20129246750832,7.292294323783718,3.4100646233754164,0.11454709137706737,D,1331,Correct
2,relearn,5,592,B,30.063395172900375,57.919225804740904,1.5031697586450188,0.9097930714489121,A,1280,Correct
2,relearn,5,593,C,69.69231007082102,66.06724364908034,3.484615503541051,1.0377818364543887,C,3692,Incorrect
2,relearn,5,594,B,29.87363183531123,77.61409346066013,1.4936815917655617,1.2191593291552072,A,1340,Incorrect
2,relearn,5,595,B,35.63745375259982,61.063287606342,1.7818726876299908,0.9591798787406235,B,16342,Incorrect
2,relearn,5,596,B,65.79294880240333,70.54248647757849,3.2896474401201665,1.1080787864195896,C,2150,Incorrect
2,relearn,5,597,D,50.10187987614409,36.227120922369366,2.5050939938072045,0.5690542847521235,D,7853,Correct
2,relearn,5,598,D,49.29549733506333,24.57167768040499,2.4647748667531664,0.38597101043568294,D,1902,Correct
2,relearn,5,599,D,75.66532550747164,27.60771436156181,3.7832662753735815,0.43366096310344,C,2348,Incorrect
2,relearn,5,600,D,69.39839764859731,39.96910130347392,3.4699198824298656,0.6278331751278995,C,1533,Incorrect
2,relearn,5,601,B,40.01083725001856,95.95424813707851,2.000541862500928,1.5072458051408897,B,1815,Correct
2,relearn,5,602,D,60.78884183564306,43.974951417559325,3.039442091782153,0.6907569215768622,C,3678,Incorrect
2,relearn,5,603,C,92.41788846122213,52.94345614375446,4.620894423061106,0.831633864384362,C,2751,Correct
2,relearn,5,604,D,71.08616638911185,27.238376123228225,3.5543083194555924,0.4278594116222471,D,5367,Correct
2,relearn,5,605,B,68.87868167130573,85.75982020582227,3.4439340835652867,1.3471121056589637,B,3645,Correct
2,relearn,5,606,C,71.55334357037799,65.81942403833803,3.5776671785188996,1.033889095111771,C,6390,Correct
2,relearn,5,607,A,33.84601435633586,50.86353306974454,1.6923007178167928,0.7989625091376547,A,3789,Correct
2,relearn,5,608,D,51.617230717772415,18.39306445160407,2.580861535888621,0.2889175807908146,D,2229,Correct
2,relearn,5,609,D,32.338558419924055,10.469891561719042,1.6169279209962029,0.16446067207089154,D,2095,Correct
2,relearn,5,610,B,42.10730125750654,97.36377754038816,2.105365062875327,1.5293866412331716,D,6238,Incorrect
2,relearn,5,611,D,35.033337937928586,43.822804438766305,1.7516668968964293,0.6883670024226519,A,13604,Incorrect
2,relearn,5,612,D,52.50232754380478,51.3518758196848,2.625116377190239,0.8066333791158856,C,3928,Incorrect
2,relearn,5,613,B,39.39301124653225,84.10643667141323,1.9696505623266123,1.321140817832635,B,1741,Correct
2,relearn,5,614,B,64.66086956450961,53.81181453735216,3.2330434782254804,0.8452740061344098,C,1869,Incorrect
2,relearn,5,615,C,65.6541671977408,43.26920253900096,3.28270835988704,0.6796710441160713,C,1923,Correct
2,relearn,5,616,A,33.21584845492846,27.2520535706359,1.660792422746423,0.4280742564637262,A,1909,Correct
2,relearn,5,617,B,67.49150766772678,70.06288127871977,3.374575383386339,1.1005451655727994,B,3192,Correct
2,relearn,5,618,D,73.71749568210602,32.74801935293201,3.685874784105301,0.5144046850939379,D,2668,Correct
2,relearn,5,619,D,43.98697741121149,11.130545708005714,2.1993488705605744,0.17483820313358076,D,1240,Correct
2,relearn,5,620,C,86.11794516018804,57.78002181787178,4.305897258009402,0.9076064603364197,C,2573,Correct
2,relearn,5,621,C,51.71402433621979,47.09969046363415,2.5857012168109894,0.7398402077345313,B,11092,Incorrect
2,relearn,5,622,B,46.559048574853165,86.40568996270518,2.327952428742658,1.3572574040759597,B,1494,Correct
2,relearn,5,623,B,34.334857751280055,84.72707732773571,1.7167428875640027,1.3308898184647442,B,1630,Correct
2,relearn,5,624,B,46.33089475593761,76.09905879455869,2.3165447377968804,1.1953612202704167,B,1397,Correct
2,relearn,5,625,D,58.74387722563466,43.27648005421009,2.937193861281733,0.6797853590576581,C,3928,Incorrect
2,relearn,5,626,B,53.33329119595914,94.31352484874179,2.6666645597979572,1.4814733839948282,B,1210,Correct
2,relearn,5,627,D,67.39976395360875,33.82066067805575,3.3699881976804376,0.5312536956286656,C,1583,Incorrect
2,relearn,5,628,D,64.58706999699722,10.76128268650848,3.2293534998498608,0.16903783315569038,D,1487,Correct
2,relearn,5,629,A,43.94793269603572,55.54047978330537,2.1973966348017857,0.8724278163204229,B,6459,Incorrect
2,relearn,5,630,B,45.99279181350401,71.82665712005927,2.2996395906752007,1.128250491701456,B,2857,Correct
2,relearn,5,631,B,38.544816795023934,78.04370632739054,1.9272408397511966,1.2259076722852469,A,1122,Incorrect
2,relearn,5,632,B,41.073340002802034,82.82942961633019,2.0536670001401016,1.3010816379184789,B,1382,Correct
2,relearn,5,633,D,25.423965767933595,27.974632479496098,1.2711982883966797,0.4394244994222967,A,1384,Incorrect
2,relearn,5,634,D,39.27751998702715,20.015742006264595,1.9638759993513575,0.31440654021514736,D,4154,Correct
2,relearn,5,635,C,65.97973153137545,53.369232568656855,3.298986576568773,0.8383219448270874,C,2168,Correct
2,relearn,5,636,B,67.2664545326284,90.2824329046448,3.36332272663142,1.4181531398072276,B,1332,Correct
2,relearn,5,637,A,23.55873625585664,54.03664795270685,1.177936812792832,0.8488056811642088,A,1959,Correct
2,relearn,5,638,D,40.67339238222323,27.03678409231877,2.033669619111161,0.42469281140561016,A,4374,Incorrect
2,relearn,5,639,C,81.25867852227022,41.620173545907306,4.0629339261135105,0.6537681572647732,C,1195,Correct
2,relearn,5,640,C,76.67461372390025,42.91600789116852,3.833730686195013,0.6741230755614831,C,1407,Correct
2,relearn,5,641,D,28.807091257382798,31.717965118318038,1.4403545628691399,0.49822463101262626,D,4109,Correct
2,relearn,5,642,D,66.11623460496695,10.212180676461402,3.3058117302483474,0.16041255895151393,D,1254,Correct
2,relearn,5,643,C,56.2051005831907,62.03895821569628,2.810255029159535,0.9745056768339779,B,2973,Incorrect
2,relearn,5,644,B,59.28652812723775,84.14236758273832,2.9643264063618875,1.3217052192679133,B,1093,Correct
2,relearn,5,645,A,28.17729467480227,62.284276014780886,1.4088647337401137,0.9783591198109731,A,1452,Correct
2,relearn,5,646,A,48.23713344062836,43.78632877754402,2.411856672031418,0.6877940440759982,A,4909,Correct
2,relearn,5,647,A,39.7735043776761,67.24424895278163,1.9886752188838048,1.0562701925311095,B,1493,Incorrect
2,relearn,5,648,B,51.143177135639334,78.43979130630267,2.557158856781967,1.2321293605849848,B,1201,Correct
2,relearn,5,649,A,25.198239102494657,47.13565495956599,1.2599119551247329,0.7404051367155791,A,4174,Correct
2,relearn,5,650,A,19.807598375720517,67.94202545450867,0.9903799187860258,1.0672308401894757,A,789,Correct
2,relearn,5,651,D,39.57025160030961,25.178443243398657,1.9785125800154804,0.39550206161144397,D,3829,Correct
2,relearn,5,652,C,82.43310645234449,31.398346275253154,4.121655322617224,0.4932040699660187,C,2765,Correct
2,relearn,5,653,A,28.356736284315318,48.31871363754616,1.417836814215766,0.7589885789731199,A,2200,Correct
2,relearn,5,654,B,46.964814979441854,49.668291570420095,2.348240748972093,0.7801876995699382,C,1677,Incorrect
2,relearn,5,655,D,39.782649687203005,30.552658708420676,1.98913248436015,0.4799200407300531,D,1885,Correct
2,relearn,5,656,C,49.83244264451378,46.378490660390966,2.491622132225689,0.7285116277163356,B,4243,Incorrect
2,relearn,5,657,A,45.95346816649758,47.81224588062995,2.297673408324879,0.7510330020510795,B,2878,Incorrect
2,relearn,5,658,C,88.47969326621258,44.5836564454778,4.423984663310629,0.7003184377964213,C,1797,Correct
2,relearn,5,659,D,33.06677979731364,25.715726312048293,1.653338989865682,0.4039416843182833,D,3021,Correct
2,relearn,5,660,C,67.97832978681296,56.40017044591095,3.3989164893406483,0.88593180567043,C,1447,Correct
2,relearn,5,661,B,41.242548133387665,80.4080516627345,2.0621274066693833,1.2630467219655763,B,1429,Correct
2,relearn,5,662,D,41.42089941807511,49.40156519950361,2.0710449709037557,0.7759979715329887,A,2749,Incorrect
2,relearn,5,663,A,21.660270169335593,27.86615376608981,1.0830135084667796,0.4377205197767564,A,1990,Correct
2,relearn,5,664,B,47.893711370644546,58.53972635050143,2.3946855685322275,0.9195398712294606,C,4974,Incorrect
2,relearn,5,665,D,52.548676999808045,33.33496893215859,2.6274338499904024,0.523624467524567,D,3165,Correct
2,relearn,5,666,C,81.99815997629356,65.70043088376313,4.099907998814678,1.032019955010571,C,1248,Correct
2,relearn,5,667,D,56.300012321251764,33.33474939684306,2.8150006160625884,0.5236210190718946,D,1165,Correct
2,relearn,5,668,C,78.77431411085954,26.813091270864636,3.938715705542977,0.4211790527829048,D,786,Incorrect
2,relearn,5,669,D,47.62603351296719,3.632078046429953,2.3813016756483596,0.05705254853964555,D,887,Correct
2,relearn,5,670,A,5.731642177858998,53.94287467287306,0.2865821088929499,0.8473326939290646,A,1214,Correct
2,relearn,5,671,B,31.553928049969397,74.66587915345363,1.5776964024984699,1.172848887111566,B,1531,Correct
2,relearn,5,672,D,41.81341513999149,42.72288716081175,2.0906707569995744,0.6710895422227594,D,2215,Correct
2,relearn,5,673,D,55.67239209355853,14.039028177671545,2.7836196046779262,0.22052453893256513,D,1212,Correct
2,relearn,5,674,B,49.756039688627375,61.074446105773745,2.4878019844313686,0.9593551560398227,B,3925,Correct
2,relearn,5,675,D,46.33150042546672,26.396548088625163,2.316575021273336,0.41463600777677256,D,1436,Correct
2,relearn,5,676,C,74.08521835387936,65.934831586467,3.7042609176939676,1.0357019126386249,C,1198,Correct
2,relearn,5,677,A,41.893881007757386,42.493900064131374,2.0946940503878695,0.6674926213192698,D,1269,Incorrect
2,relearn,5,678,B,50.04505284868458,55.399046385208095,2.502252642434229,0.8702061856982496,B,2029,Correct
2,relearn,5,679,D,38.32947028042016,45.68717998901187,1.916473514021008,0.7176525450835715,D,1898,Correct
2,relearn,5,680,B,27.75933763909622,75.43535371959172,1.387966881954811,1.1849357653320838,B,1695,Correct
2,relearn,5,681,A,37.967973738680506,29.556366240228495,1.8983986869340255,0.46427031523555606,D,1421,Incorrect
2,relearn,5,682,A,26.913493719591756,41.524204427287216,1.3456746859795878,0.6522606778746314,D,1968,Incorrect
2,relearn,5,683,D,37.23010450594811,12.003359060391313,1.8615052252974056,0.18854832321262915,D,796,Correct
2,relearn,5,684,D,64.37565220474406,43.75841553660452,3.2187826102372026,0.6873555839126311,C,1176,Incorrect
2,relearn,5,685,C,84.94279554247272,49.254832295885166,4.247139777123636,0.7736930964727504,C,1167,Correct
2,relearn,5,686,B,25.340572291121628,68.82545211842685,1.2670286145560814,1.0811076737762293,A,1243,Incorrect
2,relearn,5,687,A,10.718960905140628,70.49444043607996,0.5359480452570314,1.1073240809645601,A,1605,Correct
2,relearn,5,688,B,61.631623531491485,82.34081324602973,3.081581176574574,1.2934064699216807,B,1974,Correct
2,relearn,5,689,A,20.725833946517668,29.31726984561838,1.0362916973258833,0.4605145978515214,A,2341,Correct
2,relearn,5,690,A,19.28484011086017,75.58572367644922,0.9642420055430085,1.1872977710910047,A,1477,Correct
2,relearn,5,691,C,79.63913464837083,59.567943265784905,3.981956732418541,0.9356910647662172,C,1296,Correct
2,relearn,5,692,D,55.54935616451489,20.858755075271745,2.7774678082257447,0.3276485585375126,D,1348,Correct
2,relearn,5,693,A,40.153941659280235,34.02864516169926,2.007697082964012,0.5345207082580413,A,2221,Correct
2,relearn,5,694,B,43.9169852764029,57.5038405800328,2.195849263820145,0.9032682155971483,B,4339,Correct
2,relearn,5,695,D,54.804378180344905,30.38161636563724,2.7402189090172455,0.4772333138923469,D,3639,Correct
2,relearn,5,696,D,60.08145901817998,34.53477921928902,3.004072950908999,0.5424710434433192,D,3286,Correct
2,relearn,5,697,D,38.74691982689837,20.947626915912792,1.9373459913449185,0.32904455414585726,A,2469,Incorrect
2,relearn,5,698,C,81.16324162314223,31.512247452958626,4.058162081157111,0.49499322548159247,C,1476,Correct
2,relearn,5,699,C,79.92414218334908,35.36679098922208,3.996207109167454,0.5555402537639289,C,1341,Correct
2,relearn,5,700,C,85.01743610251674,42.00037767916577,4.250871805125837,0.6597403898243196,C,1240,Correct
2,relearn,5,701,B,46.63493505335616,49.92349402937651,2.331746752667808,0.7841964104211158,B,4277,Correct
2,relearn,5,702,B,60.83233297045701,55.97062446154541,3.041616648522851,0.8791845131261212,C,1884,Incorrect
2,relearn,5,703,A,40.63281832960425,52.12196011850085,2.0316409164802125,0.8187298349949121,A,4711,Correct
2,relearn,5,704,B,59.36668878887559,59.24064502682871,2.9683344394437796,0.9305498760510289,C,4181,Incorrect
2,relearn,5,705,C,98.48175592975744,48.074191325197994,4.924087796487872,0.7551476314725608,C,1284,Correct
2,relearn,5,706,B,26.25998481220245,76.7000628034622,1.3129992406101225,1.2048017691661632,A,1631,Incorrect
2,relearn,5,707,D,32.47691090218861,18.776155876272274,1.6238455451094302,0.29493516681776905,D,1175,Correct
2,relearn,5,708,C,83.7546060348486,33.84254316334423,4.18773030174243,0.5315974249037885,C,1836,Correct
2,relearn,5,709,C,63.24119215699483,27.312568420726272,3.1620596078497414,0.42902482150611115,D,3029,Incorrect
2,relearn,5,710,B,38.435040319537165,99.15419166080606,1.9217520159768582,1.5575104004711133,B,1310,Correct
2,relearn,5,711,A,15.620915941128036,63.614036757401294,0.7810457970564018,0.9992469527112148,A,1230,Correct
2,relearn,5,712,A,2.9099570341946155,50.002743395498605,0.14549785170973079,0.7854412565531699,A,1101,Correct
2,relearn,5,713,C,89.42534799418681,43.40842733923522,4.47126739970934,0.6818579821641384,C,1438,Correct
2,relearn,5,714,D,23.982554493280123,20.586268284874674,1.1991277246640062,0.3233683460429541,D,1723,Correct
2,relearn,5,715,B,25.991971534552622,79.7364452689752,1.2995985767276312,1.2524971534018854,B,1909,Correct
2,relearn,5,716,C,64.00572576040534,32.08070183600883,3.200286288020267,0.5039224860500496,C,1247,Correct
2,relearn,5,717,D,46.47322178058885,30.60202402837194,2.3236610890294425,0.4806954693625581,D,15196,Correct
2,relearn,5,718,D,71.05289510813273,16.255927163060022,3.5526447554066363,0.25534750676380064,D,1414,Correct
2,relearn,5,719,B,70.5494490893458,79.53721405695968,3.52747245446729,1.2493676368417168,B,1565,Correct
2,relearn,5,720,B,57.471432363628736,99.77527766690986,2.8735716181814372,1.5672663966412288,B,2627,Correct
2,relearn,5,721,C,96.47366880255012,60.63028378166333,4.823683440127507,0.9523782705676893,C,2494,Correct
2,relearn,5,722,C,55.751726771597504,58.360488304484164,2.7875863385798754,0.9167244065864024,B,4702,Incorrect
2,relearn,5,723,B,31.602975275752947,93.40323072091218,1.5801487637876475,1.467174517271851,B,1374,Correct
2,relearn,5,724,B,60.150702902766696,57.55626719387064,3.0075351451383345,0.904091730921576,C,9454,Incorrect
2,relearn,5,725,D,62.26145575507171,9.000384417466098,3.1130727877535858,0.14137770782697773,D,1364,Correct
2,relearn,5,726,D,46.81651600066264,13.577523777451677,2.340825800033132,0.21327524476591464,D,1782,Correct
2,relearn,5,727,C,60.7603412194524,67.75659661299538,3.0380170609726203,1.0643181307581666,B,6822,Incorrect
2,relearn,5,728,C,95.94420840910901,50.62698758803726,4.797210420455451,0.7952468613997976,C,1237,Correct
2,relearn,5,729,D,30.93922654591774,25.931192701863807,1.5469613272958869,0.407326222454983,D,1198,Correct
2,relearn,5,730,D,42.17506209058995,40.10394137092908,2.1087531045294976,0.6299512379545328,A,2911,Incorrect
2,relearn,5,731,D,45.71773403207205,41.520856908903056,2.285886701603603,0.6522080951788143,D,2730,Correct
2,relearn,5,732,C,60.70721638858072,59.26185720629026,3.035360819429036,0.930883076186844,C,4277,Correct
2,relearn,5,733,D,54.464825199150305,36.98312550819888,2.723241259957515,0.5809295770167344,D,1313,Correct
2,relearn,5,734,C,58.43722766063321,52.12966036150245,2.9218613830316604,0.8188507901291358,B,4565,Incorrect
2,relearn,5,735,B,48.10279419196061,82.49906182016834,2.4051397095980307,1.2958922327114553,B,1077,Correct
2,relearn,5,736,C,54.918129464518714,54.77606058164886,2.7459064732259355,0.8604203475794876,A,5463,Incorrect
2,relearn,5,737,D,70.70743809134326,26.889150886200312,3.535371904567163,0.42237379442677186,D,1316,Correct
2,relearn,5,738,A,-0.10946513205456299,47.71672724748842,-0.00547325660272815,0.7495325988702877,A,1261,Correct
2,relearn,5,739,B,37.71925213467594,88.44983999660619,1.8859626067337971,1.3893668377226533,B,2239,Correct
2,relearn,5,740,C,60.807063060102536,48.90555159739515,3.040353153005127,0.7682066080906659,C,1819,Correct
2,relearn,5,741,A,28.24347353568587,24.837156308857317,1.4121736767842936,0.3901411389798376,D,2569,Incorrect
2,relearn,5,742,C,68.25162571650696,28.719211569156627,3.412581285825348,0.45112032041276723,D,1405,Incorrect
2,relearn,5,743,B,40.09502453297134,61.50846742214182,2.0047512266485668,0.9661727469348393,A,3982,Incorrect
2,relearn,5,744,C,90.19636088985776,48.10228763080124,4.509818044492888,0.7555889672089418,C,2188,Correct
2,relearn,5,745,D,64.13562207310704,11.256227861485746,3.2067811036553517,0.17681241378388182,D,1308,Correct
2,relearn,5,746,C,71.57147969313299,67.90253384131573,3.578573984656649,1.0666105073800491,C,3236,Correct
2,relearn,5,747,B,36.252099549805195,74.6980276528223,1.8126049774902597,1.1733538745587688,B,8461,Correct
2,relearn,5,748,D,46.14516411129262,32.91832266180641,2.307258205564631,0.517079803214147,D,2478,Correct
2,relearn,5,749,B,34.08087651125578,68.86598084517372,1.704043825562789,1.081744297527266,A,4222,Incorrect
2,relearn,5,750,D,55.6226530381159,25.783068826648385,2.781132651905795,0.40499949806399294,D,1343,Correct
2,relearn,5,751,A,36.35813816299443,72.00865259289546,1.8179069081497214,1.1311092699037,B,1198,Incorrect
2,relearn,5,752,C,100.7622003515044,51.485278017229874,5.03811001757522,0.8087288559347873,C,1396,Correct
2,relearn,5,753,C,60.62584682322786,43.92149943851376,3.031292341161393,0.6899172998534153,C,2863,Correct
2,relearn,5,754,D,61.43899919677222,4.108210751917984,3.0719499598386113,0.06453162358812069,D,1348,Correct
2,relearn,5,755,A,38.88196478592392,56.95117369527123,1.9440982392961959,0.8945869444719018,A,1412,Correct
2,relearn,5,756,B,29.871156022257075,74.81296122567116,1.4935578011128539,1.1751592468993328,A,1351,Incorrect
2,relearn,5,757,A,18.845665699679245,55.03100396972886,0.9422832849839622,0.8644249889548545,A,1150,Correct
2,relearn,5,758,D,41.289803338061475,20.52669903005257,2.0644901669030737,0.3224326343763094,D,3190,Correct
2,relearn,5,759,A,32.69199566177135,61.672965238013646,1.6345997830885677,0.9687566725842117,B,4507,Incorrect
2,relearn,5,760,A,8.872245669331903,70.20427497856313,0.44361228346659515,1.1027661726162583,A,1167,Correct
2,relearn,5,761,D,43.38546728524892,15.216055508386432,2.169273364262446,0.23901324100880664,D,1748,Correct
2,relearn,5,762,C,54.7610326808699,59.57052714027004,2.738051634043495,0.9357316521717187,C,8987,Correct
2,relearn,5,763,C,73.39863391335219,76.63460954190168,3.669931695667609,1.203773631737803,C,990,Correct
2,relearn,5,764,A,25.284574942689655,58.56853465920987,1.2642287471344829,0.9199923910844644,A,1440,Correct
2,relearn,5,765,D,41.34281238453113,49.018983426099844,2.0671406192265565,0.7699883910893754,D,1547,Correct
2,relearn,5,766,D,30.449708710615674,8.867518743004844,1.5224854355307837,0.13929065869296908,D,1064,Correct
2,relearn,5,767,D,35.02742211711826,23.156090357125144,1.751371105855913,0.3637350167590291,D,1083,Correct
2,relearn,5,768,D,58.510284880663164,41.834686660683204,2.9255142440331583,0.6571377213921663,C,1172,Incorrect
2,relearn,5,769,B,68.69848562318558,72.35238214306695,3.4349242811592786,1.1365085610519023,C,1133,Incorrect
2,relearn,5,770,A,49.32882328177742,53.69237377234243,2.466441164088871,0.8433978349849413,B,2352,Incorrect
2,relearn,5,771,B,54.88474101505173,63.90547962709015,2.7442370507525866,1.003824926602993,B,1527,Correct
2,relearn,5,772,C,71.89577641812062,50.158884807480206,3.5947888209060306,0.7878939201171824,C,1123,Correct
2,relearn,5,773,C,70.45381887755707,69.62003159327553,3.5226909438778535,1.0935888989806184,C,1270,Correct
2,relearn,5,774,D,38.9791911935529,14.283234106488948,1.948959559677645,0.22436051669224427,D,1319,Correct
2,relearn,5,775,C,75.3083098744718,39.30775055107323,3.76541549372359,0.6174447018019589,C,1573,Correct
2,relearn,5,776,C,77.59397536855683,56.71335332505825,3.8796987684278412,0.8908512708322265,C,1076,Correct
2,relearn,5,777,D,61.28327002892981,18.59777169951801,3.0641635014464907,0.2921331147217297,D,1352,Correct
2,relearn,5,778,C,94.21401521254403,48.211711790376675,4.710700760627201,0.7573077978881789,C,1429,Correct
2,relearn,5,779,B,64.99275731453054,77.67760339903147,3.249637865726527,1.220156940934294,B,1174,Correct
2,relearn,5,780,D,52.53323473231945,10.007165920103635,2.6266617366159726,0.1571921946892586,D,1142,Correct
2,relearn,5,781,B,60.3572285770233,95.41793091330308,3.0178614288511647,1.4988213538898572,B,1077,Correct
2,relearn,5,782,D,49.05525525281707,14.900033392114416,2.4527627626408535,0.23404917721454627,D,1267,Correct
2,relearn,5,783,D,46.574738466559175,17.166487838554097,2.3287369233279587,0.26965056040770036,D,1269,Correct
2,relearn,5,784,D,42.00769918657642,20.848691000223123,2.100384959328821,0.327490472416323,D,1129,Correct
2,relearn,5,785,C,91.41180615831162,57.47646292610513,4.570590307915581,0.9028381684148898,C,1022,Correct
2,relearn,5,786,C,70.17420580670384,61.53918739112398,3.508710290335192,0.9666552950792037,C,1270,Correct
2,relearn,5,787,D,48.79055395204205,3.5832480590437648,2.4395276976021028,0.05628552889140888,D,1198,Correct
2,relearn,5,788,B,38.501891462823124,74.03777290899781,1.9250945731411562,1.1629826172952846,B,1789,Correct
2,relearn,5,789,A,32.10456769053635,43.65467943905748,1.6052283845268176,0.6857261011028019,A,2133,Correct
2,relearn,5,790,C,51.817779934454705,47.96174759763894,2.5908889967227355,0.7533813695303518,D,7887,Incorrect
2,relearn,5,791,A,13.172385954400303,59.68114579102663,0.6586192977200152,0.9374692458745533,A,2492,Correct
2,relearn,5,792,C,68.59720165638629,43.35184170407703,3.4298600828193146,0.68096913708558,C,4302,Correct
2,relearn,5,793,A,11.078123694295929,53.132100973173635,0.5539061847147964,0.8345970904355668,A,4379,Correct
2,relearn,5,794,B,69.33137852143354,69.62418935736426,3.4665689260716768,1.0936542089862011,C,1735,Incorrect
2,relearn,5,795,B,59.62413898626399,84.08378349249598,2.9812069493132,1.3207849825303004,C,1102,Incorrect
2,relearn,5,796,A,32.06728084602833,59.01250747213779,1.6033640423014166,0.9269662997219043,A,1598,Correct
2,relearn,5,797,A,29.080585570812246,70.55013475980986,1.4540292785406124,1.1081989253559428,B,1999,Incorrect
2,relearn,5,798,B,36.74681482791013,92.94029468926472,1.8373407413955065,1.4599027350913225,B,1123,Correct
2,relearn,5,799,A,11.077981692335735,54.349650974348535,0.5538990846167867,0.8537223211309135,A,1815,Correct
2,relearn,5,800,C,80.12500321764708,38.91602651039241,4.006250160882354,0.6112915149597722,C,8388,Correct
2,relearn,5,801,D,63.05264444084874,46.37675360451199,3.1526322220424365,0.7284843421063941,D,8207,Correct
2,relearn,5,802,A,33.91167046697082,49.30333338355853,1.6955835233485408,0.7744549497763794,A,3285,Correct
2,relearn,5,803,B,64.97288877679378,89.57497331404157,3.2486444388396887,1.4070403905444737,B,4181,Correct
2,relearn,5,804,B,63.560927950187306,68.39733047123752,3.178046397509365,1.0743827546679656,C,2135,Incorrect
2,relearn,5,805,C,74.37855091676784,32.259286100212904,3.7189275458383917,0.506727681112401,C,1102,Correct
2,relearn,5,806,D,62.3292702256371,2.3239343340660845,3.1164635112818555,0.03650427515663549,D,1269,Correct
2,relearn,5,807,C,84.26606505366381,39.41378195781109,4.213303252683191,0.6191102392442462,C,7141,Correct
2,relearn,5,808,C,65.78481618599368,62.272732507686435,3.289240809299684,0.97817779482555,C,3806,Correct
2,relearn,5,809,B,29.112057196408564,67.5291231650603,1.455602859820428,1.0607449861935687,A,1437,Incorrect
2,relearn,5,810,A,51.12487085501674,55.09323515198487,2.556243542750837,0.8654025140798531,D,4453,Incorrect
2,relearn,5,811,C,63.036370800845425,28.492500931460995,3.1518185400422714,0.4475591580433911,D,1283,Incorrect
2,relearn,5,812,C,53.25072548847049,54.677532929142984,2.6625362744235246,0.8588726788330481,B,2983,Incorrect
2,relearn,5,813,C,58.88300672251145,56.77609163751611,2.9441503361255728,0.8918367619398075,B,1886,Incorrect
2,relearn,5,814,D,43.582301545073506,26.91299030262554,2.1791150772536754,0.4227482631043087,D,1558,Correct
2,relearn,5,815,C,94.90874066439483,56.84521123301939,4.7454370332197415,0.8929224900070685,C,1342,Correct
2,relearn,5,816,C,87.71279868044091,56.064450481569196,4.385639934022046,0.8806583288022326,C,1118,Correct
2,relearn,5,817,D,36.28538108751373,26.404845772710598,1.8142690543756863,0.4147663474935956,D,1149,Correct
2,relearn,5,818,B,70.89892184390722,62.83192624284945,3.5449460921953606,0.9869615894771578,C,1150,Incorrect
2,relearn,5,819,C,76.69612547191963,41.52843119078791,3.8348062735959814,0.6523270717204427,C,1237,Correct
2,relearn,5,820,D,36.65299300824654,37.49466255561265,1.832649650412327,0.588964782167705,A,1320,Incorrect
2,relearn,5,821,D,41.456282198026585,30.136823159902992,2.0728141099013295,0.47338811120842994,D,4297,Correct
2,relearn,5,822,B,50.81744395185854,81.63760303498624,2.540872197592927,1.2823604697569628,B,1383,Correct
2,relearn,5,823,A,30.468146405946676,67.73962472716585,1.5234073202973337,1.0640515369989685,A,1932,Correct
2,relearn,5,824,D,39.47803096856882,33.35314564364017,1.9739015484284408,0.5239099866408519,D,5150,Correct
2,relearn,5,825,C,85.11065952051555,38.1394535125985,4.255532976025778,0.5990931348355443,C,1269,Correct
2,relearn,5,826,C,85.00771095461359,57.01396606424017,4.250385547730679,0.8955732846971733,C,998,Correct
2,relearn,5,827,A,37.73676062936551,54.10992147201459,1.8868380314682756,0.8499566589140083,A,1511,Correct
2,relearn,5,828,A,33.30132042056915,64.70043286129989,1.6650660210284574,1.0163120228056968,A,2677,Correct
2,relearn,5,829,C,54.10691169726407,61.20598451023189,2.7053455848632035,0.9614213564653759,C,2619,Correct
2,relearn,5,830,C,68.0844752999291,57.947944624752566,3.4042237649964546,0.910244185618754,C,830,Correct
2,relearn,5,831,A,20.57836735655414,36.52238821289731,1.028918367827707,0.5736923325059631,A,894,Correct
2,relearn,5,832,B,41.771059820279866,89.33389587989579,2.0885529910139935,1.4032535550641805,B,983,Correct
2,relearn,5,833,C,98.14581029968237,41.95803295009259,4.907290514984118,0.6590752403754467,C,2531,Correct
2,relearn,5,834,A,44.69503669740078,45.4057798624047,2.234751834870039,0.7132323222312299,A,7591,Correct
2,relearn,5,835,A,36.390377982426784,33.442975549274806,1.8195188991213394,0.5253210314989241,D,2063,Incorrect
2,relearn,5,836,C,65.2238632152689,40.05001550092504,3.2611931607634457,0.6291041723693171,C,3165,Correct
2,relearn,5,837,A,47.779969942842364,54.36194079619762,2.388998497142118,0.8539153692010887,A,7739,Correct
2,relearn,5,838,D,43.96782218831018,5.375730231078368,2.198391109415509,0.08444177300818181,D,1585,Correct
2,relearn,5,839,A,2.3204059358824765,37.00603652071722,0.11602029679412382,0.5812894623598039,A,2716,Correct
2,relearn,5,840,A,8.554277722752229,46.29921636042978,0.42771388613761147,0.7272663899244528,A,2885,Correct
2,relearn,5,841,A,48.63670037873017,47.897843030730485,2.4318350189365083,0.7523775589406998,C,11823,Incorrect
2,relearn,5,842,C,52.296940536528815,52.862315630442055,2.6148470268264408,0.8303593121817082,B,3390,Incorrect
2,relearn,5,843,A,34.16530348132954,49.81211467612332,1.708265174066477,0.7824468676314068,A,11188,Correct
2,relearn,5,844,D,32.20697319266892,39.94688496722097,1.610348659633446,0.6274842017340896,D,1598,Correct
2,relearn,5,845,D,25.39703159983218,23.032106925687764,1.2698515799916088,0.36178748957217627,D,789,Correct
2,relearn,5,846,A,18.948073360407907,71.73881639006808,0.9474036680203953,1.1268706927413246,A,1508,Correct
2,relearn,5,847,A,17.047854923126984,54.86352599198745,0.8523927461563491,0.8617942510323022,A,877,Correct
2,relearn,5,848,A,9.392989726910642,53.4389063616615,0.4696494863455321,0.839416378208343,A,807,Correct
2,relearn,5,849,C,48.53156852916506,46.594739870160865,2.426578426458253,0.7319084623601239,C,1532,Correct
2,relearn,5,850,A,16.075190306637705,25.585161655353364,0.8037595153318853,0.401890779486827,A,1247,Correct
2,relearn,5,851,B,57.13608567390164,90.67757771279481,2.856804283695082,1.4243600599391688,B,1608,Correct
2,relearn,5,852,B,57.3566437673344,100.00946344530384,2.86783218836672,1.5709449782461176,B,1494,Correct
2,relearn,5,853,C,86.14576767509648,26.98434237106258,4.307288383754824,0.42386905877440995,C,2514,Correct
2,relearn,5,854,C,71.79648875350624,73.39955804869025,3.589824437675312,1.1529575617125143,C,1245,Correct
2,relearn,5,855,D,44.77680080531671,33.750261571688895,2.2388400402658357,0.5301478690517587,D,2824,Correct
2,relearn,5,856,D,48.30164651811702,7.103649412443566,2.415082325905851,0.1115838640390508,D,1053,Correct
2,relearn,5,857,B,34.969089571365785,72.67681853463799,1.7484544785682892,1.141604795973486,B,1507,Correct
2,relearn,5,858,A,27.152752463106708,42.81145374067863,1.3576376231553353,0.6724807428060763,A,2359,Correct
2,relearn,5,859,C,93.80969637570576,32.85470823067476,4.690484818785288,0.5160805500666197,C,1077,Correct
2,relearn,5,860,D,51.560954001328724,19.82862307611595,2.578047700066436,0.3114672829336345,D,1271,Correct
2,relearn,5,861,D,31.183189431930586,13.09877463535275,1.5591594715965293,0.20575507082726258,D,1094,Correct
2,relearn,5,862,C,51.64112018195599,62.10014542368643,2.5820560090977995,0.9754668032495554,B,1827,Incorrect
2,relearn,5,863,B,38.861522660873746,76.4593874478571,1.9430761330436872,1.2010212495208175,B,1603,Correct
2,relearn,5,864,B,63.86800521426496,91.58865818776772,3.1934002607132483,1.4386712785741884,B,1463,Correct
2,relearn,5,865,C,54.89007576954845,61.141097914750986,2.744503788477423,0.9604021202069796,B,1982,Incorrect
2,relearn,5,866,A,2.5651458823363704,52.33796293156583,0.12825729411681852,0.8221227992483108,A,1123,Correct
2,relearn,5,867,B,45.602343155382805,72.29670957828226,2.28011715776914,1.135634058449232,B,2725,Correct
2,relearn,5,868,A,33.79278833022653,38.635439392853634,1.6896394165113264,0.6068840628240133,D,1470,Incorrect
2,relearn,5,869,D,24.773173250304026,24.43063348009769,1.2386586625152014,0.3837554933180987,D,1559,Correct
2,relearn,5,870,D,39.373279346878896,1.4104213380462625,1.9686639673439448,0.02215484657036212,D,1043,Correct
2,relearn,5,871,D,45.48517864466789,-0.7067661675615184,2.2742589322333946,-0.011101856999085395,D,695,Correct
2,relearn,5,872,A,35.89739222940201,27.51021203320368,1.7948696114701006,0.432129400111051,D,1357,Incorrect
2,relearn,5,873,C,73.39508953457764,48.74116061193716,3.669754476728882,0.76562436052951,C,1125,Correct
2,relearn,5,874,C,96.49458949048179,41.9318900270308,4.824729474524089,0.6586645883002754,C,1343,Correct
2,relearn,5,875,B,36.19007673456026,66.77197468573189,1.8095038367280127,1.0488517256918948,B,1307,Correct
2,relearn,5,876,D,73.33430811143128,31.186125617989504,3.666715405571564,0.4898705156770214,C,1582,Incorrect
2,relearn,5,877,C,99.9793043109812,55.56145760894714,4.9989652155490605,0.8727573352350452,C,1485,Correct
2,relearn,5,878,D,24.19218285531375,26.770654756959807,1.2096091427656874,0.42051246158126787,A,2078,Incorrect
2,relearn,5,879,A,1.7168306631810566,40.36217542341275,0.08584153315905282,0.6340075689654799,A,2373,Correct
2,relearn,5,880,B,54.52700748963561,71.24210101911093,2.7263503744817803,1.1190683059397042,B,1590,Correct
2,relearn,5,881,D,35.02911681317953,30.745034859616744,1.7514558406589764,0.48294187824667034,D,2086,Correct
2,relearn,5,882,A,33.15646936155639,58.98705443350377,1.6578234680778194,0.9265664843259833,A,4126,Correct
2,relearn,5,883,C,93.88725147569386,47.75043478956498,4.694362573784693,0.7500620757030791,C,1483,Correct
2,relearn,5,884,B,57.631443605430654,78.93620096032156,2.8815721802715326,1.239926945196169,B,2391,Correct
2,relearn,5,885,B,33.59596482509674,78.85914538934128,1.6797982412548373,1.2387165591176197,B,1725,Correct
2,relearn,5,886,A,24.51239626766598,28.18208753848827,1.225619813383299,0.44268319586869603,D,1820,Incorrect
2,relearn,5,887,A,30.748688913404898,33.984026402468615,1.537434445670245,0.5338198384269849,D,1525,Incorrect
2,relearn,5,888,A,44.502946959575254,64.03136149050407,2.2251473479787625,1.0058022742895998,A,2423,Correct
2,relearn,5,889,C,87.42431715400235,46.4850367172756,4.3712158577001174,0.730185249264224,C,1197,Correct
2,relearn,5,890,B,39.49637374158509,65.70641954310112,1.9748186870792546,1.0321140246514764,A,1317,Incorrect
2,relearn,5,891,C,80.41079647528538,39.43581467071132,4.0205398237642695,0.6194563282891764,C,1431,Correct
2,relearn,5,892,B,47.50492718517399,74.39729295666974,2.3752463592586994,1.1686299449982065,A,2337,Incorrect
2,relearn,5,893,B,28.320275173703934,87.28317822844988,1.4160137586851966,1.3710409575223337,B,1066,Correct
2,relearn,5,894,C,62.53902743306531,66.58900142211952,3.126951371653265,1.0459775883880549,C,9079,Correct
2,relearn,5,895,A,24.95426873565428,39.32229771137496,1.247713436782714,0.6176732080616315,A,1749,Correct
2,relearn,5,896,D,71.36085111609671,24.574108696152425,3.568042555804835,0.38600919674174755,C,1435,Incorrect
2,relearn,5,897,A,20.398068138691954,71.8097708104053,1.0199034069345978,1.1279852421696803,A,1764,Correct
2,relearn,5,898,C,81.0431888875955,63.28131341166921,4.052159444379775,0.9940205466180662,C,1404,Correct
