experiment,condition,subject,trial,cat,x,y,xt,yt,resp,rt,fb
2,relearn,19,0,B,62.81236463439514,53.78263908933848,3.1406182317197566,0.8448157192686849,A,3807,Incorrect
2,relearn,19,1,A,30.541771183045178,40.925707084113164,1.5270885591522587,0.6428595035920884,C,1636,Incorrect
2,relearn,19,2,A,13.919171377988427,73.07436764288423,0.6959585688994213,1.147849482763024,B,549,Incorrect
2,relearn,19,3,D,39.06377416211153,49.158097427356694,1.9531887081055765,0.7721735887111755,D,502,Correct
2,relearn,19,4,B,41.55970286843348,61.39977252201968,2.077985143421674,0.9644653714363074,D,723,Incorrect
2,relearn,19,5,A,28.666852565188474,36.266432607088035,1.4333426282594237,0.5696717912516855,A,1549,Correct
2,relearn,19,6,B,58.333692933070466,88.48249810602245,2.9166846466535232,1.3898798301057647,C,1135,Incorrect
2,relearn,19,7,A,41.790104816225025,35.48457218731692,2.0895052408112513,0.5573903564972577,B,900,Incorrect
2,relearn,19,8,A,22.18882230798649,59.25180533534013,1.1094411153993247,0.9307251817671853,D,838,Incorrect
2,relearn,19,9,D,46.05714543442263,22.52519662138281,2.3028572717211317,0.3538249611320093,D,827,Correct
2,relearn,19,10,D,36.105040831578904,8.84189992882298,1.805252041578945,0.13888823930083194,C,1001,Incorrect
2,relearn,19,11,C,74.14256817418062,69.09099560821628,3.707128408709031,1.0852788211598845,B,827,Incorrect
2,relearn,19,12,D,25.10953449810688,24.680010944757232,1.255476724905344,0.3876727053728251,D,497,Correct
2,relearn,19,13,C,97.6478706077166,51.6072442464666,4.88239353038583,0.8106446969835679,C,507,Correct
2,relearn,19,14,A,24.249250614652805,48.60585541111434,1.2124625307326402,0.7634989914050224,A,1085,Correct
2,relearn,19,15,D,72.9689656247567,26.39647374534829,3.6484482812378354,0.4146348399953102,D,616,Correct
2,relearn,19,16,B,52.136018387021764,79.67149359526066,2.606800919351088,1.2514768948969857,B,934,Correct
2,relearn,19,17,B,35.691614750251595,66.82241678000807,1.78458073751258,1.0496440682559434,C,493,Incorrect
2,relearn,19,18,C,91.14932841459674,35.545595006148595,4.557466420729837,0.5583489006939724,C,1215,Correct
2,relearn,19,19,B,44.41292701532799,74.9472662969005,2.2206463507663994,1.1772689060249024,B,1124,Correct
2,relearn,19,20,D,75.09750347836876,29.917851392281516,3.754875173918438,0.4699485107259138,D,686,Correct
2,relearn,19,21,A,18.931507009039457,58.03493063214445,0.9465753504519728,0.9116105586276912,A,463,Correct
2,relearn,19,22,D,52.129526621268106,26.549472606672396,2.6064763310634054,0.4170381404890273,C,951,Incorrect
2,relearn,19,23,D,42.81255416733018,49.821797495765146,2.140627708366509,0.7825989650066706,C,974,Incorrect
2,relearn,19,24,C,49.067256676942975,49.88763742401123,2.453362833847149,0.7836331761811247,D,587,Incorrect
2,relearn,19,25,A,15.50287126233711,53.152854041586004,0.7751435631168555,0.8349230788718855,A,960,Correct
2,relearn,19,26,D,54.347958568748716,22.329638152356534,2.717397928437436,0.35075313588380824,B,1292,Incorrect
2,relearn,19,27,B,65.5488395388411,87.42313313462763,3.277441976942055,1.3732393640477432,D,688,Incorrect
2,relearn,19,28,D,44.85132243235513,47.82082175309428,2.2425661216177564,0.7511677115407398,D,1149,Correct
2,relearn,19,29,B,72.08164256205399,65.51044454099761,3.604082128102699,1.0290356565169982,C,542,Incorrect
2,relearn,19,30,B,52.84964155792942,93.99488634490535,2.642482077896471,1.4764682220808112,C,901,Incorrect
2,relearn,19,31,C,69.98544934292472,50.41152653562971,3.499272467146236,0.7918624071029061,B,1045,Incorrect
2,relearn,19,32,C,73.18528492942839,24.44850774459885,3.6592642464714196,0.3840362616083245,D,540,Incorrect
2,relearn,19,33,A,22.15004193136094,25.453036201609034,1.1075020965680469,0.3998153577126499,C,934,Incorrect
2,relearn,19,34,C,96.16937922351987,38.636812646565296,4.808468961175993,0.6069056338428738,D,805,Incorrect
2,relearn,19,35,C,57.83053972056196,38.17261152996445,2.8915269860280977,0.5996139797543667,B,1294,Incorrect
2,relearn,19,36,C,61.44808288970013,37.39732097388051,3.0724041444850063,0.5874357441774125,C,1116,Correct
2,relearn,19,37,B,52.85684269590129,87.91332251414572,2.6428421347950644,1.3809392408155516,A,1358,Incorrect
2,relearn,19,38,A,31.442454408207965,27.79659218762055,1.5721227204103982,0.4366278490573008,A,1518,Correct
2,relearn,19,39,A,21.089593846933504,26.771793260713615,1.054479692346675,0.42053034515641313,A,877,Correct
2,relearn,19,40,B,32.65181792404884,92.60832232203958,1.632590896202442,1.4546881253409762,B,1231,Correct
2,relearn,19,41,D,33.74860091811833,32.03090167586194,1.6874300459059162,0.5031402269637243,B,1389,Incorrect
2,relearn,19,42,B,59.15523494550318,90.97678370839871,2.957761747275159,1.4290599767276648,D,668,Incorrect
2,relearn,19,43,A,45.473090247539275,62.48696022243972,2.273654512376964,0.9815428758998711,C,1216,Incorrect
2,relearn,19,44,B,57.171193334281384,80.41012945679849,2.8585596667140694,1.2630793598784118,C,1673,Incorrect
2,relearn,19,45,A,26.91899488428105,38.24794179649013,1.3459497442140524,0.600797264813917,A,1326,Correct
2,relearn,19,46,B,36.80024520234912,79.88251584118734,1.8400122601174558,1.2547916245847222,B,985,Correct
2,relearn,19,47,D,26.79529061855178,20.802335791189854,1.339764530927589,0.3267623264955503,B,634,Incorrect
2,relearn,19,48,D,34.895513221734674,46.56785035574099,1.7447756610867338,0.7314860828553236,B,1295,Incorrect
2,relearn,19,49,D,62.70745659130361,13.937837328401613,3.135372829565181,0.21893503678918047,D,662,Correct
2,relearn,19,50,C,70.56832856786679,71.79531252418026,3.5284164283933395,1.12775813194074,D,622,Incorrect
2,relearn,19,51,D,53.43524205317489,44.09460579735658,2.6717621026587444,0.6926364481795667,C,1156,Incorrect
2,relearn,19,52,C,88.11339735069461,51.75005529782517,4.405669867534731,0.8128879677325654,D,734,Incorrect
2,relearn,19,53,A,20.09346158841674,62.792745529497225,1.0046730794208372,0.986346140271009,B,1181,Incorrect
2,relearn,19,54,B,35.82236708434792,69.12473798137465,1.7911183542173958,1.0858088451180297,A,926,Incorrect
2,relearn,19,55,B,67.08623488894666,68.36289770575907,3.354311744447333,1.073841886052616,C,1016,Incorrect
2,relearn,19,56,C,97.28607753121746,51.32787184965032,4.864303876560873,0.806256325636299,D,706,Incorrect
2,relearn,19,57,D,71.9586176665099,12.274300051037159,3.597930883325495,0.19280425434147577,D,1488,Correct
2,relearn,19,58,C,100.64175849644936,47.95783157779548,5.032087924822468,0.7533198568344944,B,2132,Incorrect
2,relearn,19,59,C,76.64916087531205,58.36894888091729,3.8324580437656026,0.9168573050102397,C,686,Correct
2,relearn,19,60,B,28.51680357959264,66.71213597728573,1.425840178979632,1.0479117814576209,A,780,Incorrect
2,relearn,19,61,B,67.17672673942758,85.50604443439265,3.358836336971379,1.3431258051630517,B,926,Correct
2,relearn,19,62,A,42.302588682730914,31.53658005792078,2.115129434136546,0.49537544114655147,D,972,Incorrect
2,relearn,19,63,A,48.76106799509242,60.4797764275399,2.438053399754621,0.9500141065775626,C,637,Incorrect
2,relearn,19,64,C,71.70417570000194,74.66534782188822,3.585208785000097,1.1728405409748535,B,518,Incorrect
2,relearn,19,65,C,74.15665224705347,28.89126994998099,3.7078326123526733,0.4538230071386991,A,926,Incorrect
2,relearn,19,66,A,46.6928063990988,59.38660219550739,2.33464031995494,0.9328425658953275,C,861,Incorrect
2,relearn,19,67,A,24.225251325347582,34.74052383982704,1.211262566267379,0.5457028723853086,D,1516,Incorrect
2,relearn,19,68,A,30.069917940485997,55.39490459938095,1.5034958970243,0.8701411266786132,B,959,Incorrect
2,relearn,19,69,B,73.55578888342548,73.58004006548587,3.6777894441712737,1.1557925666028652,D,644,Incorrect
2,relearn,19,70,A,15.716724718702027,43.33462721424719,0.7858362359351014,0.6806987325116565,A,685,Correct
2,relearn,19,71,B,48.17537236957241,79.35931291879871,2.4087686184786206,1.246573172298158,C,1365,Incorrect
2,relearn,19,72,B,49.69408844388117,90.31468990321129,2.4847044221940586,1.418659831555844,B,2321,Correct
2,relearn,19,73,C,63.16049486812739,68.48367580509009,3.1580247434063695,1.0757390640004802,B,1835,Incorrect
2,relearn,19,74,D,27.456033568652575,26.353941964609273,1.372801678432629,0.41396675234574126,A,2222,Incorrect
2,relearn,19,75,A,25.86213924977615,63.36179661595173,1.2931069624888074,0.9952847738346228,D,647,Incorrect
2,relearn,19,76,C,72.7327597652805,63.032234359888726,3.636637988264025,0.9901080220218827,C,1654,Correct
2,relearn,19,77,B,48.67443038626778,83.60143469653042,2.433721519313389,1.313208265360934,D,1540,Incorrect
2,relearn,19,78,B,47.972391525060964,85.89179395010211,2.3986195762530484,1.3491851443864453,C,3711,Incorrect
2,relearn,19,79,B,55.16901748547879,82.9152150924742,2.7584508742739393,1.3024291530266725,B,613,Correct
2,relearn,19,80,B,38.04809942245054,59.6438277370622,1.902404971122527,0.9368830552536488,B,1078,Correct
2,relearn,19,81,D,34.242982120422965,38.37633104244994,1.7121491060211482,0.6028139983734533,B,2083,Incorrect
2,relearn,19,82,A,50.545662150523725,48.81154038077627,2.5272831075261863,0.7667298833532413,C,1685,Incorrect
2,relearn,19,83,B,26.910505502175585,63.472739935842114,1.3455252751087792,0.9970274674282853,A,550,Incorrect
2,relearn,19,84,C,63.34315405137761,53.604064343290894,3.1671577025688804,0.8420106737171864,D,708,Incorrect
2,relearn,19,85,A,30.35224559173806,40.947184467950954,1.5176122795869031,0.6431968695485041,C,885,Incorrect
2,relearn,19,86,C,59.37199460422521,28.325818499782237,2.9685997302112606,0.4449409165291686,B,847,Incorrect
2,relearn,19,87,A,25.333906904322852,43.90331614012956,1.2666953452161425,0.689631677270306,A,1077,Correct
2,relearn,19,88,C,74.33990374674377,49.661446946018,3.7169951873371883,0.7800801844612473,D,1213,Incorrect
2,relearn,19,89,C,64.29258231212282,65.10072532886693,3.214629115606141,1.0225998021826768,C,975,Correct
2,relearn,19,90,D,39.57092378588869,3.0212451944285768,1.9785461892944343,0.04745760853755142,B,1814,Incorrect
2,relearn,19,91,A,45.71721904609966,35.87035693876531,2.285860952304983,0.5634502492023438,D,1564,Incorrect
2,relearn,19,92,A,22.71728442432272,38.52887865103066,1.1358642212161358,0.6052102106056527,A,758,Correct
2,relearn,19,93,C,81.36593655008772,75.60502663398131,4.068296827504386,1.1876009812388815,D,1757,Incorrect
2,relearn,19,94,D,44.4142902148669,2.0451202678759905,2.220714510743345,0.03212467404633401,C,910,Incorrect
2,relearn,19,95,A,35.55319559421001,31.22272098175783,1.7776597797105007,0.4904453543068714,A,924,Correct
2,relearn,19,96,A,25.776052499271,60.65885858410786,1.2888026249635498,0.9528271225148771,B,933,Incorrect
2,relearn,19,97,B,47.348568502249115,92.15448326846254,2.3674284251124558,1.447559238157827,C,949,Incorrect
2,relearn,19,98,A,16.681259565427375,52.0593164354437,0.8340629782713688,0.8177458303224814,A,901,Correct
2,relearn,19,99,B,55.388373557929235,96.43109135970926,2.7694186778964616,1.5147360409665436,D,958,Incorrect
2,relearn,19,100,C,90.58176006070886,65.24456031543966,4.529088003035443,1.0248591568684067,B,685,Incorrect
2,relearn,19,101,D,48.052517977319766,19.168512180024013,2.4026258988659883,0.30109828522504956,A,951,Incorrect
2,relearn,19,102,B,71.6066776695649,88.49891460371059,3.5803338834782448,1.3901376998484383,C,765,Incorrect
2,relearn,19,103,A,19.843257559282055,59.3650880908134,0.9921628779641027,0.9325046231290516,D,443,Incorrect
2,relearn,19,104,A,16.5782644089983,61.880272253906256,0.8289132204499151,0.972013043575041,B,782,Incorrect
2,relearn,19,105,B,70.02055486411044,70.43977983944819,3.5010277432055217,1.1064654743204643,A,495,Incorrect
2,relearn,19,106,A,43.92201897910489,68.49694966573156,2.1961009489552445,1.0759475693158604,D,1126,Incorrect
2,relearn,19,107,D,67.46086736116084,17.23958290025212,3.3730433680580414,0.27079873495192136,C,469,Incorrect
2,relearn,19,108,A,36.5321861779998,52.0771014182272,1.8266093088999897,0.818025196178766,B,467,Incorrect
2,relearn,19,109,B,58.52017957477327,58.863052847700715,2.9260089787386634,0.9246186719710215,C,1366,Incorrect
2,relearn,19,110,A,40.25841818833067,67.74620276648048,2.0129209094165335,1.064154864598898,A,1309,Correct
2,relearn,19,111,C,95.46937183444231,61.13185945968318,4.773468591722116,0.9602570028941219,B,2255,Incorrect
2,relearn,19,112,C,93.0379058446076,66.48862766741559,4.65189529223038,1.0444009211360994,D,933,Incorrect
2,relearn,19,113,B,49.774557605463905,50.99942921808797,2.488727880273195,0.8010971608440891,C,447,Incorrect
2,relearn,19,114,A,32.220853638317706,41.83952489152355,1.6110426819158852,0.6572137201444884,A,1012,Correct
2,relearn,19,115,D,62.348812675024114,42.52830300049351,3.1174406337512055,0.6680330213799557,A,847,Incorrect
2,relearn,19,116,D,66.14000128911084,18.76746467943463,3.307000064455542,0.2947986458170888,B,845,Incorrect
2,relearn,19,117,C,87.95971132297691,48.77994538472389,4.397985566148845,0.7662335903157995,C,445,Correct
2,relearn,19,118,D,26.941870659720237,23.397446493982773,1.3470935329860116,0.36752623009128266,B,1173,Incorrect
2,relearn,19,119,A,42.40411894263138,44.988714767011,2.120205947131569,0.7066810790324418,A,639,Correct
2,relearn,19,120,B,57.24112732984538,84.06863758368792,2.862056366492269,1.3205470711510838,C,1116,Incorrect
2,relearn,19,121,A,11.247204547778622,69.47642568531104,0.5623602273889311,1.091333142653252,A,790,Correct
2,relearn,19,122,C,83.34846733278678,25.00614295101946,4.167423366639339,0.3927955749476947,D,957,Incorrect
2,relearn,19,123,D,63.05673707376505,6.858688931279747,3.1528368536882523,0.10773603379883044,B,687,Incorrect
2,relearn,19,124,B,40.26069900369747,86.39585258096537,2.0130349501848737,1.357102878844938,C,1138,Incorrect
2,relearn,19,125,A,15.87220240863989,26.524052130536337,0.7936101204319945,0.41663883658362827,A,3397,Correct
2,relearn,19,126,C,60.52089682168889,59.003205677243955,3.0260448410844445,0.9268201874693858,A,2304,Incorrect
2,relearn,19,127,A,27.988770007197303,51.20422135145274,1.399438500359865,0.8043140281525477,A,676,Correct
2,relearn,19,128,A,27.008758585194524,33.526022118250594,1.3504379292597262,0.5266255239539249,B,1039,Incorrect
2,relearn,19,129,B,31.841674267708463,58.546807913044596,1.5920837133854233,0.9196511081537682,A,4315,Incorrect
2,relearn,19,130,C,76.85380556802393,63.680374020868285,3.8426902784011965,1.0002889760090505,D,1429,Incorrect
2,relearn,19,131,B,59.78916535300704,69.47275444678299,2.9894582676503525,1.0912754749733051,B,838,Correct
2,relearn,19,132,B,25.009511617324936,69.2130937483683,1.2504755808662467,1.0871967342604774,A,1024,Incorrect
2,relearn,19,133,A,36.34889904529592,57.84798827977876,1.8174449522647962,0.9086740750235069,A,947,Correct
2,relearn,19,134,A,45.14737828284196,58.29684894156127,2.257368914142098,0.9157247618112141,B,5783,Incorrect
2,relearn,19,135,B,70.9101723673273,61.596906979766935,3.545508618366365,0.9675619522574482,D,781,Incorrect
2,relearn,19,136,A,23.16650415229656,74.61991591002024,1.158325207614828,1.1721268981720383,C,979,Incorrect
2,relearn,19,137,D,59.63186400498052,31.297273644365987,2.9815932002490264,0.4916164247926482,B,1551,Incorrect
2,relearn,19,138,C,98.32544255305348,40.62151869395717,4.9162721276526735,0.6380813235329814,A,934,Incorrect
2,relearn,19,139,C,76.13726047813857,41.32391236728952,3.8068630239069283,0.6491144975533258,D,1125,Incorrect
2,relearn,19,140,C,94.11207407874893,60.75229830896264,4.705603703937447,0.9542948702806633,D,1671,Incorrect
2,relearn,19,141,D,55.99042826427965,23.518680532865986,2.7995214132139825,0.36943056992088535,B,605,Incorrect
2,relearn,19,142,C,86.41441944363082,54.953390333469756,4.320720972181541,0.8632058368074046,A,863,Incorrect
2,relearn,19,143,A,29.92766653935358,32.30485300252258,1.4963833269676792,0.5074434443401155,A,789,Correct
2,relearn,19,144,C,88.68772878003853,38.06690987704692,4.434386439001926,0.5979536220729766,D,1012,Incorrect
2,relearn,19,145,A,13.648696869133408,33.77604949705653,0.6824348434566704,0.5305529448361901,A,390,Correct
2,relearn,19,146,D,38.777227827168055,1.0625652794335458,1.9388613913584027,0.016690736379140068,C,543,Incorrect
2,relearn,19,147,C,87.81160322698268,45.842859848185164,4.390580161349134,0.7200979585930251,B,1069,Incorrect
2,relearn,19,148,B,42.379921154344686,73.8026187557113,2.118996057717234,1.1592888244931543,A,804,Incorrect
2,relearn,19,149,A,24.09493781075128,56.87225824755426,1.204746890537564,0.89334734351789,A,687,Correct
2,relearn,19,150,C,80.04743823821964,25.831435397731465,4.0023719119109815,0.40575923838596256,C,1317,Correct
2,relearn,19,151,D,73.59765051928778,18.267775393376663,3.679882525964389,0.2869495448663026,C,1981,Incorrect
2,relearn,19,152,C,60.89170475017234,43.3410864540787,3.044585237508617,0.6808001940136688,C,1405,Correct
2,relearn,19,153,C,98.27083384355703,60.0342976098942,4.913541692177851,0.9430165416733345,D,909,Incorrect
2,relearn,19,154,A,34.30732399407159,71.11162600158016,1.7153661997035794,1.117018809156946,C,904,Incorrect
2,relearn,19,155,A,38.147460649009,29.660552738996092,1.9073730324504499,0.4659068729312137,B,627,Incorrect
2,relearn,19,156,A,36.6841803202923,63.262470407580295,1.8342090160146147,0.9937245614019798,B,869,Incorrect
2,relearn,19,157,A,29.889218575631617,45.62317262221366,1.4944609287815809,0.716647119717027,C,565,Incorrect
2,relearn,19,158,D,57.93761167858515,28.705738208900584,2.8968805839292577,0.4509086813647695,D,400,Correct
2,relearn,19,159,C,76.56569934501093,38.022359666833,3.828284967250546,0.597253829007357,D,604,Incorrect
2,relearn,19,160,B,39.305121855660815,67.60044928185188,1.9652560927830407,1.0618653742161763,C,1568,Incorrect
2,relearn,19,161,C,89.03526992511765,54.62744055405517,4.451763496255882,0.8580858296451643,C,925,Correct
2,relearn,19,162,C,79.16486069665524,46.379396806257745,3.958243034832762,0.7285258614223262,C,839,Correct
2,relearn,19,163,A,24.721922123448312,60.026191926776555,1.2360961061724156,0.9428892179006608,A,927,Correct
2,relearn,19,164,C,94.27313821242981,67.19868605748447,4.7136569106214905,1.0555544922454003,C,1716,Correct
2,relearn,19,165,A,3.9603489250931148,37.85140084226837,0.19801744625465573,0.594568414070764,A,1103,Correct
2,relearn,19,166,D,70.6538233757769,33.143587105581645,3.5326911687888445,0.5206182488225434,C,1174,Incorrect
2,relearn,19,167,C,72.58538005598149,53.47664470148493,3.6292690027990746,0.840009170664083,D,995,Incorrect
2,relearn,19,168,B,54.046925367785946,53.97001807172235,2.7023462683892974,0.8477590614411565,C,622,Incorrect
2,relearn,19,169,C,77.64063986614737,68.28007547267427,3.8820319933073684,1.0725409174575504,C,508,Correct
2,relearn,19,170,D,26.321772739172204,30.486674398994584,1.3160886369586102,0.47888356162132695,D,631,Correct
2,relearn,19,171,A,21.28324157437464,58.223628186457944,1.064162078718732,0.9145746128795995,C,870,Incorrect
2,relearn,19,172,C,83.1391891711994,62.69374431996197,4.15695945855997,0.9847910329081467,C,764,Correct
2,relearn,19,173,B,43.202261028922706,78.8997784435124,2.1601130514461353,1.2393548216400045,D,1431,Incorrect
2,relearn,19,174,C,89.82007791167172,35.853132457661495,4.491003895583586,0.5631796876858556,C,4207,Correct
2,relearn,19,175,B,26.858844756577952,83.75289571757833,1.3429422378288975,1.3155874095160804,A,1194,Incorrect
2,relearn,19,176,C,74.07277769294517,28.25461246940185,3.7036388846472583,0.4438224148194971,D,1119,Incorrect
2,relearn,19,177,D,55.87234462486967,42.32481258386005,2.7936172312434837,0.6648366013900979,C,742,Incorrect
2,relearn,19,178,A,44.148775747002205,64.09350696181512,2.2074387873501102,1.0067784530702233,C,966,Incorrect
2,relearn,19,179,B,74.61481161669526,71.39485343445357,3.730740580834763,1.1214677352689968,C,573,Incorrect
2,relearn,19,180,B,70.32128118887606,68.44331421076181,3.516064059443803,1.075105065559336,C,788,Incorrect
2,relearn,19,181,D,49.20100526726271,3.252427382150149,2.460050263363135,0.05108900985048594,D,389,Correct
2,relearn,19,182,C,71.92396490432762,26.42076326589385,3.5961982452163808,0.41501637889183596,D,581,Incorrect
2,relearn,19,183,A,20.258152844656255,43.20676461220917,1.0129076422328127,0.6786902714554989,A,748,Correct
2,relearn,19,184,A,27.575737651242775,75.86068577337187,1.3787868825621388,1.191616865609544,C,911,Incorrect
2,relearn,19,185,D,25.89385610694145,28.552794952370107,1.2946928053470725,0.44850625430910823,A,766,Incorrect
2,relearn,19,186,A,4.667592619192746,42.00705449484426,0.2333796309596373,0.6598452689997442,A,687,Correct
2,relearn,19,187,A,29.299972590284128,75.52099664028688,1.4649986295142066,1.1862810411845237,B,820,Incorrect
2,relearn,19,188,D,39.035907380693736,45.43416238176677,1.951795369034687,0.7136781538028211,C,653,Incorrect
2,relearn,19,189,D,54.17352689831739,30.173584054347693,2.7086763449158697,0.47396554998806417,D,508,Correct
2,relearn,19,190,A,30.13602475867333,65.21346167121655,1.5068012379336664,1.0243706605072673,D,1799,Incorrect
2,relearn,19,191,B,43.00148155467044,64.2059714696458,2.1500740777335223,1.0085450414281756,C,762,Incorrect
2,relearn,19,192,A,45.144041337263964,62.80830450414333,2.257202066863198,0.986590540073237,C,1141,Incorrect
2,relearn,19,193,C,78.19713781844682,29.786389793717824,3.9098568909223412,0.46788351676452955,D,833,Incorrect
2,relearn,19,194,D,47.62323913173774,51.55167553065536,2.381161956586887,0.8097718256367579,B,2046,Incorrect
2,relearn,19,195,C,75.03262903083429,30.344379349368978,3.7516314515417144,0.476648396208597,C,1069,Correct
2,relearn,19,196,D,56.16942480120429,40.332177938875915,2.8084712400602148,0.6335363695802445,C,907,Incorrect
2,relearn,19,197,D,58.62305688449646,9.832916813814158,2.9311528442248225,0.15445509612819056,D,733,Correct
2,relearn,19,198,A,40.69150615032233,46.22024650069685,2.034575307516117,0.7260259342684929,C,1088,Incorrect
2,relearn,19,199,B,30.953980953167715,70.570710888049,1.5476990476583858,1.1085221344225198,B,749,Correct
2,relearn,19,200,B,61.40387019190212,76.22229273406519,3.0701935095951063,1.1972969744655495,B,831,Correct
2,relearn,19,201,D,50.5887484374142,7.941288666549699,2.52943742187071,0.12474147067434209,C,1556,Incorrect
2,relearn,19,202,A,19.442410245729583,67.73695503372635,0.9721205122864791,1.0640096015524843,A,566,Correct
2,relearn,19,203,A,25.071700177931778,60.01420570001197,1.2535850088965887,0.9427009386909214,A,540,Correct
2,relearn,19,204,C,83.93527845858209,36.614141236683274,4.1967639229291045,0.5751335856333164,D,1598,Incorrect
2,relearn,19,205,B,36.621325089917775,55.14936720831261,1.8310662544958887,0.8662842343588038,C,1199,Incorrect
2,relearn,19,206,C,66.9810627516443,72.62454762835084,3.349053137582215,1.1407837264975451,C,766,Correct
2,relearn,19,207,A,42.20424058935936,53.346581245677974,2.110212029467968,0.8379661386777648,D,1701,Incorrect
2,relearn,19,208,B,59.5021116486731,91.63062500946657,2.9751055824336547,1.4393304918679066,C,997,Incorrect
2,relearn,19,209,A,32.90097406290636,63.22923072861791,1.6450487031453178,0.9932024337458002,A,2916,Correct
2,relearn,19,210,A,38.23716434687921,55.20449052602023,1.9118582173439607,0.8671501094085626,C,3991,Incorrect
2,relearn,19,211,B,39.229389982367614,95.04918348442885,1.9614694991183808,1.49302908282195,B,1477,Correct
2,relearn,19,212,A,39.08994130478014,39.882007680809664,1.9544970652390072,0.6264651117022167,D,2276,Incorrect
2,relearn,19,213,C,74.03033405421071,23.95729996500075,3.7015167027105353,0.37632038784946686,D,854,Incorrect
2,relearn,19,214,B,52.26374826955151,65.18534443679799,2.6131874134775757,1.0239289960218243,C,574,Incorrect
2,relearn,19,215,B,36.76214249482693,96.0576170415556,1.8381071247413467,1.508869520095464,A,662,Incorrect
2,relearn,19,216,A,-0.23703335670036196,46.88520245759578,-0.011851667835018098,0.7364710380142651,A,916,Correct
2,relearn,19,217,A,27.61612077863237,43.80122689699152,1.3808060389316186,0.688028063189041,A,2118,Correct
2,relearn,19,218,C,55.73525233406146,45.81006314129908,2.7867626167030726,0.7195827891259486,D,1703,Incorrect
2,relearn,19,219,A,18.680408760936754,28.80821623532528,0.9340204380468378,0.4525184024396205,A,1221,Correct
2,relearn,19,220,B,56.32117040788508,72.83618749101304,2.816058520394254,1.1441081576862766,C,907,Incorrect
2,relearn,19,221,B,67.39565021357377,83.50999234646099,3.369782510678689,1.3117718922849084,D,921,Incorrect
2,relearn,19,222,B,49.48055439918263,74.3116616492127,2.4740277199591314,1.167284851566085,C,708,Incorrect
2,relearn,19,223,A,18.830060389623924,72.56250849987879,0.9415030194811962,1.1398092181463306,A,699,Correct
2,relearn,19,224,C,95.20286688864674,40.14258788026911,4.760143344432337,0.6305582959036806,C,2149,Correct
2,relearn,19,225,C,79.7082971837201,54.615677447900765,3.9854148591860055,0.857901055205774,C,1776,Correct
2,relearn,19,226,B,32.1202466121956,78.66028660217592,1.6060123306097802,1.2355928925933173,A,1642,Incorrect
2,relearn,19,227,A,7.504493435389918,47.916932186799144,0.3752246717694959,0.7526774107030424,A,599,Correct
2,relearn,19,228,C,62.717038526320664,48.1224009224048,3.1358519263160334,0.755904906054648,B,1821,Incorrect
2,relearn,19,229,C,101.00538657323325,51.59726425596141,5.0502693286616624,0.810487931659298,C,1038,Correct
2,relearn,19,230,C,84.17054297254023,41.75292026636587,4.208527148627012,0.6558533378736772,D,1212,Incorrect
2,relearn,19,231,A,2.97328939822269,58.35047652693724,0.1486644699111345,0.9165671419524486,A,632,Correct
2,relearn,19,232,A,39.72576501181376,70.33992912829387,1.9862882505906883,1.1048970230173738,B,1165,Incorrect
2,relearn,19,233,B,69.43528907336903,62.708333238426135,3.471764453668452,0.985020195103501,D,1246,Incorrect
2,relearn,19,234,C,76.38969911602915,41.002528920412985,3.819484955801457,0.6440662181748623,C,1038,Correct
2,relearn,19,235,A,11.247601117887974,49.337232607871,0.5623800558943988,0.7749874375466916,A,946,Correct
2,relearn,19,236,C,88.63209875365506,36.42089228116134,4.431604937682753,0.5720980381384084,C,845,Correct
2,relearn,19,237,B,42.75779759850931,55.24776688360299,2.1378898799254658,0.867829892843843,D,823,Incorrect
2,relearn,19,238,A,43.499734678621394,64.87050352616964,2.17498673393107,1.0189834865624265,B,765,Incorrect
2,relearn,19,239,D,64.28509830110602,39.571323254321754,3.214254915055301,0.6215848921430208,C,1053,Incorrect
2,relearn,19,240,B,60.88181533152393,86.84250228709939,3.0440907665761965,1.3641188360225311,B,870,Correct
2,relearn,19,241,B,46.0750568003878,61.31835515412119,2.3037528400193903,0.9631864704119847,D,661,Incorrect
2,relearn,19,242,C,63.11232128913937,70.25633139067517,3.1556160644569684,1.1035838728255754,B,1270,Incorrect
2,relearn,19,243,C,86.87745396436304,35.89747235173965,4.343872698218152,0.56387617711334,C,1750,Correct
2,relearn,19,244,A,15.995052152002225,50.87096301999817,0.7997526076001112,0.7990792185233213,A,1245,Correct
2,relearn,19,245,C,99.26401303393378,54.476274409331964,4.963200651696689,0.8557113173964948,C,1214,Correct
2,relearn,19,246,B,46.9153158859511,57.296432758093694,2.345765794297555,0.9000102611486436,D,3636,Incorrect
2,relearn,19,247,D,48.35871499162543,33.78737765391518,2.4179357495812717,0.5307308871080194,C,479,Incorrect
2,relearn,19,248,B,36.595275436797785,61.09825830762706,1.8297637718398891,0.9597291972318636,A,1670,Incorrect
2,relearn,19,249,A,20.801360589244712,32.37800535513952,1.0400680294622355,0.5085925188079865,B,804,Incorrect
2,relearn,19,250,B,62.78969286492023,96.09661433430851,3.139484643246011,1.5094820881375761,C,942,Incorrect
2,relearn,19,251,B,63.14148889082311,58.17502067429061,3.1570744445411556,0.9138110878639285,A,2144,Incorrect
2,relearn,19,252,D,56.124896286994236,2.956616870835198,2.806244814349712,0.0464424292044775,B,1774,Incorrect
2,relearn,19,253,B,72.9527734114696,81.40048103313534,3.6476386705734796,1.2786357660618664,C,5965,Incorrect
2,relearn,19,254,D,44.704696044890454,27.650014413837905,2.2352348022445225,0.43432541077082526,D,820,Correct
2,relearn,19,255,B,37.19738594542151,66.54648616287317,1.8598692972710753,1.0453097602574857,C,781,Incorrect
2,relearn,19,256,B,45.644363551294774,80.04262674588132,2.2822181775647383,1.2573066407944533,A,726,Incorrect
2,relearn,19,257,C,70.79717648878811,63.361274951131264,3.539858824439406,0.9952765795427848,B,374,Incorrect
2,relearn,19,258,C,72.37281847633781,30.309109013591026,3.61864092381689,0.4760943710697488,C,1606,Correct
2,relearn,19,259,D,69.90346829072733,9.032525290132904,3.495173414536367,0.14188257547422772,C,1503,Incorrect
2,relearn,19,260,B,37.052278069748894,83.09364172479258,1.8526139034874447,1.3052318720131533,A,1283,Incorrect
2,relearn,19,261,B,62.62258695364318,90.73855987602055,3.131129347682159,1.4253179655191186,B,2093,Correct
2,relearn,19,262,D,73.95282931463458,24.581660938243335,3.697641465731729,0.3861278270831022,C,751,Incorrect
2,relearn,19,263,C,66.08236323586024,70.49397872949244,3.304118161793012,1.107316828494443,B,773,Incorrect
2,relearn,19,264,B,52.15173671063179,88.4298841556326,2.6075868355315897,1.3890533721056593,C,999,Incorrect
2,relearn,19,265,A,9.144208659604326,45.45435487259422,0.45721043298021624,0.7139953367070272,A,666,Correct
2,relearn,19,266,C,98.61993630184936,54.887548137063725,4.930996815092468,0.8621715900047776,C,1166,Correct
2,relearn,19,267,D,44.2500878899356,37.11905564296161,2.21250439449678,0.5830647625805948,D,3208,Correct
2,relearn,19,268,B,74.46900490287526,64.86530538994398,3.7234502451437628,1.0189018344295322,C,946,Incorrect
2,relearn,19,269,B,62.53316596268964,82.20708071766532,3.1266582981344815,1.2913058042784027,C,896,Incorrect
2,relearn,19,270,D,62.281863934871026,40.98414222324489,3.1140931967435512,0.643777400611127,B,614,Incorrect
2,relearn,19,271,B,42.53192219058987,56.23862514764559,2.126596109529493,0.8833942580591678,C,1204,Incorrect
2,relearn,19,272,D,70.88648732761541,34.94674165610871,3.544324366380771,0.5489421342686577,D,1509,Correct
2,relearn,19,273,D,57.58289452103684,40.56788599944708,2.879144726051842,0.6372388631376558,C,1009,Incorrect
2,relearn,19,274,D,27.44599414032101,35.84679752668364,1.3722997070160505,0.5630801788227504,A,747,Incorrect
2,relearn,19,275,C,56.82548686237956,31.07441116186915,2.841274343118978,0.488115709103784,B,2760,Incorrect
2,relearn,19,276,B,46.62016181384549,70.02416637301012,2.3310080906922748,1.0999370332559901,B,1623,Correct
2,relearn,19,277,B,47.4772312651414,55.79964277031662,2.37386156325707,0.8764987390008077,B,5595,Correct
2,relearn,19,278,C,87.88760782508744,30.439800349358233,4.394380391254372,0.4781472657714192,C,1262,Correct
2,relearn,19,279,B,50.419516203948554,68.53268527049886,2.520975810197428,1.0765089028829031,B,1053,Correct
2,relearn,19,280,D,32.53770261147929,33.5183340203106,1.6268851305739644,0.5265047595938831,A,1020,Incorrect
2,relearn,19,281,D,28.457169039083684,15.671076485818254,1.4228584519541843,0.2461606938084519,D,879,Correct
2,relearn,19,282,D,69.00772666702224,18.87112029521182,3.4503863333511116,0.2964268644222335,C,1030,Incorrect
2,relearn,19,283,C,90.9694947766701,61.02397810965243,4.548474738833505,0.9585624066105422,C,1147,Correct
2,relearn,19,284,D,64.51330128100686,11.321227562796508,3.225665064050343,0.17783342670449895,B,862,Incorrect
2,relearn,19,285,A,31.938020106926498,74.09499673767182,1.5969010053463248,1.1638814870941474,D,3269,Incorrect
2,relearn,19,286,B,53.849109872500044,66.21001399058102,2.6924554936250025,1.0400244677344337,B,1416,Correct
2,relearn,19,287,C,82.91138132756217,36.111253599071894,4.145569066378108,0.5672342450938112,C,925,Correct
2,relearn,19,288,A,36.005116176810205,62.390604954063804,1.80025580884051,0.980029330883549,B,1604,Incorrect
2,relearn,19,289,C,81.67056090722548,34.520309560661204,4.083528045361274,0.5422437545770937,C,686,Correct
2,relearn,19,290,A,46.34499969627006,57.51057536711912,2.317249984813503,0.9033740053853176,A,855,Correct
2,relearn,19,291,D,58.164450224848736,25.29932707347413,2.9082225112424367,0.3974009003739585,B,886,Incorrect
2,relearn,19,292,A,15.9790036903708,58.9167625364404,0.79895018451854,0.9254623417888777,A,790,Correct
2,relearn,19,293,D,54.260678341913746,12.779836916529957,2.713033917095687,0.20074520885523073,D,6903,Correct
2,relearn,19,294,D,74.25239772708467,36.13221840243769,3.7126198863542332,0.5675635594550009,C,868,Incorrect
2,relearn,19,295,B,27.280824523653383,61.716115939622654,1.364041226182669,0.9694344822200722,A,725,Incorrect
2,relearn,19,296,A,24.767889357557976,55.291665873403765,1.2383944678778989,0.8685194565631337,B,797,Incorrect
2,relearn,19,297,C,59.36738709012634,51.85667974251981,2.968369354506317,0.8145628205932943,C,997,Correct
2,relearn,19,298,B,69.47085305446059,92.30825226043955,3.4735426527230295,1.4499746358355512,B,1280,Correct
2,relearn,19,299,D,72.16342244941079,31.083674685561693,3.6081711224705395,0.48826122019367824,C,964,Incorrect
2,relearn,19,300,D,70.33456380069927,27.1846480302039,3.5167281900349634,0.42701545271056407,B,613,Correct
2,relearn,19,301,A,41.62542995196087,35.959629750492766,2.0812714975980438,0.5648525432497853,D,1479,Incorrect
2,relearn,19,302,A,41.685001405919934,29.010151733602783,2.0842500702959965,0.45569039782905857,B,767,Incorrect
2,relearn,19,303,B,69.74115273716752,82.92304472178687,3.487057636858376,1.3025521405563174,C,1286,Incorrect
2,relearn,19,304,D,45.234173137614235,49.471062794652354,2.2617086568807117,0.7770896372047958,B,566,Incorrect
2,relearn,19,305,D,40.02318505448797,16.759484655900362,2.001159252724398,0.26325736936463723,D,1077,Correct
2,relearn,19,306,C,61.5314351605233,45.82152930369077,3.076571758026165,0.7197628991836218,B,982,Incorrect
2,relearn,19,307,C,62.49075621273683,50.81421402020714,3.1245378106368413,0.798187807319111,B,685,Incorrect
2,relearn,19,308,C,87.73716440128753,49.99696889045358,4.386858220064377,0.7853505508400319,C,700,Incorrect
2,relearn,19,309,A,14.580260733733526,62.04670929658704,0.7290130366866764,0.9746274305278969,A,711,Correct
2,relearn,19,310,A,29.316310633834135,36.04625361840408,1.4658155316917065,0.5662132277850638,B,799,Incorrect
2,relearn,19,311,D,36.83588878784737,25.97104908704359,1.8417944393923682,0.40795228508938025,D,757,Incorrect
2,relearn,19,312,D,60.76620581457696,14.551906939932836,3.038310290728848,0.22858081969107663,C,1742,Incorrect
2,relearn,19,313,C,91.8856154841892,58.06283775848979,4.5942807742094605,0.912048922743238,C,1687,Incorrect
2,relearn,19,314,D,36.60030907090918,33.709536899878074,1.830015453545459,0.529508167402855,C,1108,Correct
2,relearn,19,315,C,67.63085158755958,60.32169626768125,3.3815425793779785,0.9475309892331112,C,704,Correct
2,relearn,19,316,D,37.080051865662675,16.324964136502246,1.8540025932831339,0.2564319370067615,D,861,Correct
2,relearn,19,317,C,51.697182049326784,57.07420395431351,2.584859102466339,0.8965194992617842,A,2491,Incorrect
2,relearn,19,318,B,28.763452619128124,67.22903687292629,1.438172630956406,1.0560312417395128,B,832,Correct
2,relearn,19,319,C,71.99272790281458,66.58690561317188,3.599636395140729,1.0459446674980886,B,886,Incorrect
2,relearn,19,320,C,70.51084568920284,52.53454942264975,3.525542284460142,0.8252107726292318,A,1260,Incorrect
2,relearn,19,321,D,49.07447384658537,21.295187957641765,2.4537236923292682,0.33450403022270603,C,1159,Incorrect
2,relearn,19,322,C,79.34683522204031,74.17109262068888,3.967341761102016,1.1650767984294215,C,667,Incorrect
2,relearn,19,323,D,51.12038457004466,30.4326349023478,2.556019228502233,0.4780347111929809,C,743,Incorrect
2,relearn,19,324,D,49.56382522755348,21.7347116228406,2.478191261377674,0.3414080518110436,C,2332,Incorrect
2,relearn,19,325,D,48.16413528925459,8.292413487443284,2.4082067644627294,0.13025692646340367,A,3334,Incorrect
2,relearn,19,326,B,49.119411243274,80.39571118924492,2.4559705621637,1.2628528782612927,B,879,Correct
2,relearn,19,327,A,11.982903865952345,60.42446433569819,0.5991451932976173,0.9491452662706396,A,903,Incorrect
2,relearn,19,328,A,50.44260341455657,57.532453210897394,2.5221301707278285,0.9037176617517689,A,2061,Correct
2,relearn,19,329,D,59.19888985496131,4.476445726184764,2.959944492748065,0.07031584503787741,A,2101,Incorrect
2,relearn,19,330,C,52.3101572897866,62.26702942025803,2.6155078644893304,0.9780882109377108,B,555,Correct
2,relearn,19,331,D,52.390603724049384,12.017723113495117,2.619530186202469,0.18877395323116258,B,584,Correct
2,relearn,19,332,B,43.8034265767039,77.65852431143415,2.190171328835195,1.2198572473271294,B,1005,Correct
2,relearn,19,333,D,38.25535710620119,34.2266512709804,1.9127678553100593,0.5376309809494588,D,1271,Correct
2,relearn,19,334,A,45.19044798627864,51.06912436867866,2.2595223993139317,0.8021919297095217,C,1998,Incorrect
2,relearn,19,335,A,16.192232786443004,50.140290844187234,0.8096116393221502,0.7876018468247709,A,790,Correct
2,relearn,19,336,D,53.16021509552914,20.057411171161867,2.658010754776457,0.31506107792675986,D,1316,Incorrect
2,relearn,19,337,B,50.970521979504255,54.158355449472786,2.5485260989752128,0.8507174580528422,C,679,Incorrect
2,relearn,19,338,B,35.60224108450391,74.32284248574588,1.7801120542251954,1.1674604797356531,C,851,Incorrect
2,relearn,19,339,D,43.37488036167446,37.96509020669694,2.1687440180837227,0.5963542424311645,B,629,Incorrect
2,relearn,19,340,D,61.689010967898916,24.0798927680625,3.084450548394946,0.37824607109687564,D,653,Correct
2,relearn,19,341,B,33.616422876063815,87.41142069251447,1.6808211438031906,1.3730553854372514,C,1631,Incorrect
2,relearn,19,342,B,48.40971072091839,92.87390711131098,2.4204855360459194,1.458859921455377,D,838,Incorrect
2,relearn,19,343,B,62.41599920834723,76.13415264697936,3.1207999604173615,1.1959124732151714,C,1660,Correct
2,relearn,19,344,C,59.84288981157806,55.010027603598296,2.992144490578903,0.8640954929661807,D,935,Correct
2,relearn,19,345,A,47.22289188249856,55.10197563383142,2.3611445941249283,0.8655398092476428,C,630,Incorrect
2,relearn,19,346,A,6.110877781118262,37.15522651159978,0.3055438890559131,0.5836329332565329,A,581,Incorrect
2,relearn,19,347,A,21.506345452468842,33.0062178107913,1.0753172726234421,0.5184604569858327,B,687,Incorrect
2,relearn,19,348,A,0.5019546276295976,41.475406562194046,0.02509773138147988,0.6514941628021935,A,636,Incorrect
2,relearn,19,349,B,37.84579905156029,73.87562644235452,1.8922899525780144,1.160435626553224,B,902,Incorrect
2,relearn,19,350,C,64.99171695894498,51.666221045727276,3.2495858479472486,0.8115711023800157,C,830,Incorrect
2,relearn,19,351,A,26.95954101344534,62.99224709951491,1.347977050672267,0.9894799036047451,D,309,Incorrect
2,relearn,19,352,B,49.90142063639848,97.1577081745076,2.495071031819924,1.5261497112032705,B,1220,Correct
2,relearn,19,353,D,23.887484318888184,21.005110513100195,1.1943742159444093,0.3299475043789865,D,1467,Correct
2,relearn,19,354,C,64.81612995460075,58.88673780487714,3.2408064977300377,0.9249907144083519,C,807,Incorrect
2,relearn,19,355,B,55.134144583477905,75.43333007927232,2.7567072291738954,1.1849039780642794,B,868,Correct
2,relearn,19,356,B,61.47776462876109,81.38648542173131,3.0738882314380542,1.2784159235120194,B,2118,Correct
2,relearn,19,357,D,56.041318621003725,18.474253647185282,2.802065931050186,0.29019289769275863,B,2496,Incorrect
2,relearn,19,358,D,71.07312325660342,9.921058907648227,3.5536561628301713,0.15583962890049624,B,1283,Incorrect
2,relearn,19,359,C,48.86583287176349,53.768118633979356,2.443291643588174,0.84458763248927,B,1799,Correct
2,relearn,19,360,B,25.69816284789763,67.16660640049076,1.2849081423948814,1.0550505861716948,A,1548,Correct
2,relearn,19,361,B,36.23440950483919,59.01143021183951,1.8117204752419596,0.926949378156709,C,1749,Incorrect
2,relearn,19,362,B,44.869453631778576,53.964241351612415,2.243472681588929,0.8476683209338605,B,702,Correct
2,relearn,19,363,C,56.39877886515338,49.24120762610978,2.8199389432576694,0.7734790806603808,C,2254,Incorrect
2,relearn,19,364,B,41.67008525801141,63.244490156855,2.0835042629005702,0.9934421282840383,B,831,Correct
2,relearn,19,365,A,31.048887055382323,49.475450313593356,1.552444352769116,0.7771585561911587,A,812,Correct
2,relearn,19,366,A,16.89266225359612,28.175900691005964,0.844633112679806,0.4425860130956996,A,1597,Incorrect
2,relearn,19,367,D,42.001425505464994,5.065221580720735,2.1000712752732498,0.0795643145339837,C,980,Incorrect
2,relearn,19,368,D,58.688434744994225,11.949585810684995,2.934421737249711,0.18770365498144406,D,3278,Incorrect
2,relearn,19,369,A,16.43028761750628,71.74507201894639,0.821514380875314,1.126968955929963,C,607,Incorrect
2,relearn,19,370,C,62.02043511244451,42.14642797813836,3.1010217556222255,0.662034542555854,A,820,Correct
2,relearn,19,371,B,67.12405330873077,55.232925798767624,3.3562026654365384,0.8675967696283926,B,904,Incorrect
2,relearn,19,372,D,25.137226421965043,15.645341978211347,1.256861321098252,0.24575645710824381,B,1380,Incorrect
2,relearn,19,373,A,48.52299377190005,37.52538869469581,2.4261496885950025,0.5894474272317892,A,693,Incorrect
2,relearn,19,374,B,64.66559632993757,70.49813504104146,3.2332798164968786,1.1073821156835852,B,772,Incorrect
2,relearn,19,375,C,70.72295859921888,62.2143911473663,3.5361479299609444,0.9772613708806392,D,502,Incorrect
2,relearn,19,376,C,89.63784890778993,31.419648295114808,4.481892445389496,0.4935386813115388,D,811,Incorrect
2,relearn,19,377,B,56.39710297174536,61.75953813366597,2.819855148587268,0.9701165564491183,A,1644,Incorrect
2,relearn,19,378,D,26.536408632478658,16.183652002611495,1.326820431623933,0.2542122111982901,A,687,Correct
2,relearn,19,379,D,59.59246654795997,35.146285397714834,2.9796233273979986,0.5520765600321557,A,836,Incorrect
2,relearn,19,380,D,56.29974732634379,27.321652037963684,2.8149873663171894,0.4291675066320165,A,1613,Incorrect
2,relearn,19,381,C,94.37156515441683,38.86242377572661,4.718578257720841,0.6104495251725801,C,1229,Incorrect
2,relearn,19,382,D,41.49053677572675,8.245245858526896,2.074526838786338,0.12951601908094884,D,727,Incorrect
2,relearn,19,383,C,80.99044480182118,50.54933690709557,4.0495222400910595,0.7940271273558343,B,1091,Incorrect
2,relearn,19,384,C,74.32327815023702,49.193714437642576,3.7161639075118504,0.7727330594004603,A,829,Incorrect
2,relearn,19,385,C,52.7331862022955,63.449375800484695,2.6366593101147746,0.9966604644483035,D,982,Incorrect
2,relearn,19,386,D,62.19546658618236,10.007965590783853,3.1097733293091183,0.15720475588692995,B,887,Incorrect
2,relearn,19,387,B,39.30040512801088,63.43374928497345,1.965020256400544,0.9964150037166468,A,732,Incorrect
2,relearn,19,388,A,31.163643305312352,28.32596897854035,1.5581821652656176,0.44494328024397367,B,1142,Incorrect
2,relearn,19,389,D,41.83000687277652,0.13196335672036597,2.091500343638826,0.002072875560078755,B,1292,Correct
2,relearn,19,390,C,66.1127035954229,57.19373538703519,3.3056351797711447,0.8983970946163418,C,1046,Incorrect
2,relearn,19,391,C,66.29135628534212,70.82110614507904,3.3145678142671056,1.1124553339224164,D,854,Incorrect
2,relearn,19,392,B,30.988033989698227,89.3113081889606,1.5494016994849114,1.402898748444663,C,644,Incorrect
2,relearn,19,393,D,32.95860558244634,21.48609783855837,1.6479302791223172,0.33750283561963257,A,726,Incorrect
2,relearn,19,394,A,31.074122488409138,55.16068161364099,1.5537061244204569,0.8664619606221007,B,1069,Incorrect
2,relearn,19,395,A,16.413243865272403,67.65933917547103,0.8206621932636202,1.0627904145019993,C,790,Incorrect
2,relearn,19,396,D,58.623353717316064,47.615395379746545,2.931167685865803,0.7479408816139255,B,901,Incorrect
2,relearn,19,397,B,42.084887460910174,86.80199904148384,2.1042443730455087,1.3634826125281696,A,837,Correct
2,relearn,19,398,B,74.3171626768406,76.76168695761855,3.71585813384203,1.2057697591160692,C,884,Incorrect
2,relearn,19,399,A,20.472370766806556,65.06767740959542,1.0236185383403278,1.0220806866806775,C,821,Incorrect
2,relearn,19,400,D,26.59015676233726,12.329174366410603,1.3295078381168628,0.19366621807171572,B,1003,Incorrect
2,relearn,19,401,C,89.79152505222315,35.97505605974195,4.489576252611157,0.5650948591488315,D,838,Incorrect
2,relearn,19,402,C,94.65340117902768,56.669514995901636,4.732670058951384,0.8901626599681058,C,687,Correct
2,relearn,19,403,B,56.648860128543234,85.01398873238821,2.8324430064271615,1.3353966122701812,C,983,Incorrect
2,relearn,19,404,B,57.439148483391406,98.53098547400526,2.8719574241695707,1.5477211005804876,D,853,Correct
2,relearn,19,405,A,43.1619849262831,66.0186806623451,2.158099246314155,1.0370190108425696,B,1334,Correct
2,relearn,19,406,D,35.990471890068804,38.88428618484366,1.7995235945034402,0.6107929390919398,C,1151,Incorrect
2,relearn,19,407,C,66.59618320599367,49.03499990503121,3.3298091602996833,0.7702399773521112,C,971,Correct
2,relearn,19,408,B,31.37795680796149,81.50971176639794,1.5688978403980745,1.2803515584076863,C,981,Incorrect
2,relearn,19,409,B,51.738823929890245,68.16731415065775,2.5869411964945126,1.0707696667532696,C,847,Incorrect
2,relearn,19,410,B,51.15506849263709,100.21108997743298,2.5577534246318545,1.5741121204066457,C,680,Incorrect
2,relearn,19,411,B,66.23004837635236,77.92442348302124,3.3115024188176174,1.2240339817473975,C,2812,Incorrect
2,relearn,19,412,B,57.84984063733566,79.94474912104944,2.892492031866783,1.25576918265884,D,582,Incorrect
2,relearn,19,413,D,58.76636753326921,42.344546292329554,2.9383183766634606,0.6651465777578772,C,1503,Incorrect
2,relearn,19,414,A,5.979047133271887,38.56792389199496,0.2989523566635944,0.605823531816508,A,731,Incorrect
2,relearn,19,415,A,22.177387926838136,60.388444633008206,1.1088693963419067,0.9485794701038627,B,734,Incorrect
2,relearn,19,416,A,29.49947796553737,74.24776863494093,1.4749738982768685,1.1662812224448256,A,710,Correct
2,relearn,19,417,A,49.32621966240987,55.498054132277076,2.4663109831204935,0.8717613957524516,B,2980,Incorrect
2,relearn,19,418,A,11.819665963483061,31.319978516287954,0.5909832981741531,0.49197307208680185,A,631,Incorrect
2,relearn,19,419,D,61.99340445658839,19.217909841253864,3.099670222829419,0.3018742218731706,C,676,Correct
2,relearn,19,420,A,6.306204666760138,43.51310001452187,0.3153102333380069,0.6835021767026992,C,1862,Incorrect
2,relearn,19,421,D,53.823118307385,26.818694019005072,2.6911559153692504,0.4212670605448943,C,637,Correct
2,relearn,19,422,C,80.82744059270688,43.42686953340731,4.041372029635344,0.6821476714727741,D,1191,Incorrect
2,relearn,19,423,C,84.32703421435635,42.99884433866213,4.2163517107178174,0.6754242674359601,C,566,Incorrect
2,relearn,19,424,D,64.34947676962905,8.331058409543942,3.2174738384814527,0.1308639594802536,B,980,Incorrect
2,relearn,19,425,B,44.08148162434893,66.72825214245428,2.2040740812174464,1.0481649335881087,C,1526,Correct
2,relearn,19,426,C,61.614330471514485,49.69001548846897,3.0807165235757243,0.7805289380766858,C,2131,Incorrect
2,relearn,19,427,D,52.538364677462546,-1.4498019193881397,2.6269182338731274,-0.022773435295550808,D,1318,Incorrect
2,relearn,19,428,D,37.25402010945079,3.2042981357974263,1.8627010054725395,0.05033299741666332,C,1636,Correct
2,relearn,19,429,D,48.4181493500061,0.6955993471221333,2.420907467500305,0.010926448993803753,C,806,Incorrect
2,relearn,19,430,B,58.05722992639077,65.7956095590136,2.9028614963195385,1.0335150181452977,A,910,Correct
2,relearn,19,431,A,27.741556593301897,34.3735919261462,1.3870778296650947,0.5399391193633716,A,982,Correct
2,relearn,19,432,B,60.867499117707425,58.94462834999739,3.0433749558853713,0.9259000569646623,C,804,Incorrect
2,relearn,19,433,B,61.071977721270464,86.37242424116478,3.0535988860635235,1.356734867343921,D,974,Incorrect
2,relearn,19,434,D,38.61132531557072,35.852566399368236,1.9305662657785359,0.5631707960629775,B,620,Incorrect
2,relearn,19,435,B,36.95988538694802,95.56488268793106,1.847994269347401,1.5011296669678729,A,904,Correct
2,relearn,19,436,B,38.075354261587414,92.7511862453244,1.9037677130793709,1.4569322266002491,A,805,Incorrect
2,relearn,19,437,C,59.639685789030565,33.771839724604376,2.9819842894515283,0.5304868178851453,A,997,Correct
2,relearn,19,438,D,43.86872232202686,31.169620769373743,2.193436116101343,0.48961125812122197,A,957,Incorrect
2,relearn,19,439,D,29.684148445814593,38.4770512179762,1.4842074222907298,0.6043961071909612,A,566,Incorrect
2,relearn,19,440,B,48.01604374098053,70.9879159063292,2.4008021870490266,1.1150755755248694,C,901,Incorrect
2,relearn,19,441,C,90.59229134119008,54.84454792582733,4.529614567059504,0.8614961442661623,B,935,Incorrect
2,relearn,19,442,D,70.05375399758647,38.146008834400575,3.5026876998793233,0.599196105589621,D,509,Incorrect
2,relearn,19,443,C,56.54269378404339,42.02254859210243,2.8271346892021696,0.6600886497103455,C,493,Correct
2,relearn,19,444,D,49.00260310870867,15.717719104055432,2.4501301554354336,0.24689335434244242,A,915,Correct
2,relearn,19,445,D,51.36377157941799,26.72949410060185,2.5681885789709,0.41986591150311237,B,846,Correct
2,relearn,19,446,B,55.949172259213846,57.82322009529116,2.797458612960692,0.908285017291362,C,1030,Incorrect
2,relearn,19,447,D,28.03481118712004,12.870003228733701,1.4017405593560022,0.20216153797533357,A,855,Incorrect
2,relearn,19,448,B,43.98110481440489,65.13038713562386,2.199055240720244,1.0230657287536755,B,620,Incorrect
2,relearn,19,449,B,66.40453461369526,87.45684379804831,3.3202267306847633,1.3737688899104932,C,676,Correct
2,relearn,19,450,C,54.6350422285231,59.8398668231828,2.7317521114261547,0.9399624300175133,C,775,Correct
2,relearn,19,451,D,38.02735390329094,18.760812210875095,1.9013676951645468,0.2946941490853144,A,893,Incorrect
2,relearn,19,452,B,32.01718839539969,63.57247034889444,1.6008594197699848,0.9985940290932086,C,630,Incorrect
2,relearn,19,453,D,60.561232475670465,23.63209478776114,3.028061623783523,0.37121207687084024,D,327,Incorrect
2,relearn,19,454,B,74.76464372409835,78.26535921809962,3.7382321862049173,1.2293893877507398,C,783,Incorrect
2,relearn,19,455,C,73.33550648050485,30.158342118178496,3.666775324025242,0.47372613021458604,A,717,Correct
2,relearn,19,456,A,24.2332776275696,43.75383163873804,1.2116638813784801,0.6872835802133205,A,1086,Incorrect
2,relearn,19,457,C,60.38465851452349,62.976547272474384,3.019232925726174,0.9892332912982792,A,710,Incorrect
2,relearn,19,458,B,60.032624607310616,75.44566380774853,3.001631230365531,1.1850977158181406,A,722,Incorrect
2,relearn,19,459,B,46.71612444527487,58.79395663413725,2.3358062222637437,0.9235333111864122,D,486,Incorrect
2,relearn,19,460,D,62.405965490247524,9.875546926104503,3.1202982745123764,0.15512472836615585,C,2400,Incorrect
2,relearn,19,461,D,64.79027309221424,31.792757816341076,3.239513654610712,0.4993994719658829,C,875,Incorrect
2,relearn,19,462,A,-0.983271188244867,51.466274140717815,-0.04916355941224335,0.8084303437405871,D,1295,Correct
2,relearn,19,463,D,35.8331518110053,14.991902199209738,1.7916575905502652,0.2354922490618699,C,2237,Incorrect
2,relearn,19,464,A,43.74645361166584,41.65822320083123,2.1873226805832924,0.6543658398466764,C,982,Incorrect
2,relearn,19,465,B,33.53177111940867,71.60918138502198,1.6765885559704332,1.12483439084382,D,1530,Incorrect
2,relearn,19,466,B,62.54320492515101,88.08566719707012,3.1271602462575503,1.3836464247643545,C,823,Incorrect
2,relearn,19,467,C,81.05053974284527,69.25464869821272,4.052526987142263,1.087849477886235,D,503,Incorrect
2,relearn,19,468,B,38.64020931053318,89.31093759712269,1.932010465526659,1.4028929272016855,C,538,Incorrect
2,relearn,19,469,D,50.00868745890365,45.16120248870093,2.5004343729451826,0.7093905098289196,C,3424,Incorrect
2,relearn,19,470,B,54.594810398103,76.10239088865754,2.72974051990515,1.1954135606821266,A,700,Incorrect
2,relearn,19,471,A,4.247211578721892,43.257370906042446,0.21236057893609459,0.6794851932601591,D,2316,Incorrect
2,relearn,19,472,A,16.44577662783933,44.7218413672268,0.8222888313919665,0.7024890414714391,C,709,Correct
2,relearn,19,473,D,37.63831975574262,44.36925809209282,1.8819159877871312,0.6969506763367416,C,1054,Incorrect
2,relearn,19,474,A,21.77602658210501,52.18803053385041,1.0888013291052505,0.8197676666523213,D,2084,Incorrect
2,relearn,19,475,D,53.69432698038302,10.624615163606009,2.684716349019151,0.16689106472601678,C,943,Incorrect
2,relearn,19,476,B,25.081363976411577,83.9454462835297,1.2540681988205788,1.3186119867332675,A,751,Incorrect
2,relearn,19,477,D,47.72799665910403,22.35894929493351,2.3863998329552016,0.351213554234749,D,747,Correct
2,relearn,19,478,B,59.66095946388864,57.23904230587978,2.983047973194432,0.8991087740333363,C,911,Incorrect
2,relearn,19,479,C,61.607222305229826,49.17792328920158,3.080361115261491,0.7724850126207904,B,781,Incorrect
2,relearn,19,480,B,32.96123325245581,84.20063438222795,1.6480616626227909,1.3226204720140373,A,814,Correct
2,relearn,19,481,C,88.20846608892275,71.16479272266386,4.410423304446137,1.1178539500588056,D,2687,Correct
2,relearn,19,482,C,78.8692372331769,51.75817319956006,3.9434618616588453,0.81301548343483,C,1285,Incorrect
2,relearn,19,483,B,65.77459576694797,89.34165041245117,3.2887297883473985,1.4033753629767207,D,669,Incorrect
2,relearn,19,484,C,67.19421345450114,62.078488136133224,3.359710672725057,0.9751266113721863,C,1581,Incorrect
2,relearn,19,485,C,60.07025192744864,71.09438006736437,3.0035125963724316,1.1167479106557627,D,846,Incorrect
2,relearn,19,486,C,57.10915316144824,39.81179089455309,2.855457658072412,0.6253621490029051,B,1437,Incorrect
2,relearn,19,487,B,63.49643381666198,58.25718345955677,3.174821690833099,0.915101697876882,C,1382,Incorrect
2,relearn,19,488,C,60.08503131156802,32.55654117818236,3.0042515655784006,0.5113969529583564,C,4661,Incorrect
2,relearn,19,489,C,63.478162614363455,46.52494388106647,3.1739081307181727,0.7308121095271791,A,1732,Correct
2,relearn,19,490,A,39.9092771226432,37.68847741090787,1.9954638561321603,0.5920092187954652,C,1248,Correct
2,relearn,19,491,A,21.03546966775885,67.02224907909331,1.0517734833879424,1.0527830266697242,A,1652,Incorrect
2,relearn,19,492,C,52.420688344660405,63.03291551159042,2.62103441723302,0.9901187215277929,B,1197,Incorrect
2,relearn,19,493,A,14.603429327176569,68.86270504875003,0.7301714663588283,1.0816928414373694,C,998,Incorrect
2,relearn,19,494,A,22.844371414442293,45.36501942838391,1.1422185707221146,0.7125920588308455,B,2653,Incorrect
2,relearn,19,495,C,89.95263134714509,57.524347230596504,4.497631567357255,0.9035903333109516,A,661,Incorrect
2,relearn,19,496,A,39.843947817693326,56.52419735220621,1.9921973908846664,0.8878800157587533,C,310,Correct
2,relearn,19,497,D,54.667996338121156,18.145948017391934,2.733399816906058,0.2850358849193039,D,563,Incorrect
2,relearn,19,498,A,43.15348464288543,44.94663390354113,2.1576742321442715,0.7060200743747737,B,296,Incorrect
2,relearn,19,499,D,54.10696515838387,12.295490215253075,2.705348257919194,0.1931371086626212,C,357,Incorrect
2,relearn,19,500,D,33.16704479213253,38.324233547863315,1.6583522396066264,0.6019956528421345,A,358,Incorrect
2,relearn,19,501,D,38.78741917651598,23.990138156289998,1.939370958825799,0.3768362089520243,C,679,Incorrect
2,relearn,19,502,D,38.770594985017325,20.375110459784413,1.9385297492508664,0.32005148668269634,B,316,Incorrect
2,relearn,19,503,D,34.87062610383872,21.746160402163227,1.7435313051919359,0.34158788881610624,B,758,Incorrect
2,relearn,19,504,B,60.98934374172766,63.387649947214285,3.0494671870863828,0.9956908770124492,D,517,Incorrect
2,relearn,19,505,C,75.87356822083787,75.15055392255971,3.7936784110418933,1.1804621405815858,C,576,Correct
2,relearn,19,506,D,53.68916933228351,44.56273346099434,2.684458466614176,0.6999897803246993,A,324,Correct
2,relearn,19,507,B,60.8933327381325,79.22599804619676,3.0446666369066246,1.2444790671762551,B,1159,Correct
2,relearn,19,508,A,15.564988881374118,31.53930449028188,0.7782494440687059,0.49541823643000565,D,380,Correct
2,relearn,19,509,B,57.0293351807483,97.07182372215323,2.851466759037415,1.5248006413803996,C,325,Incorrect
2,relearn,19,510,C,56.58146841839147,55.927659666184766,2.829073420919573,0.8785096236987814,A,279,Incorrect
2,relearn,19,511,B,37.154431749766516,56.83421210527068,1.8577215874883257,0.8927497161124123,C,974,Incorrect
2,relearn,19,512,D,37.64356002156792,34.962936215515604,1.882178001078396,0.5491965178129617,B,596,Correct
2,relearn,19,513,C,93.94815202914677,47.12225031917108,4.697407601457338,0.7401945771166358,C,382,Incorrect
2,relearn,19,514,C,91.59341016746714,59.96593544211301,4.579670508373357,0.9419427112529102,C,893,Incorrect
2,relearn,19,515,B,35.30624994207917,64.93954729717817,1.7653124971039587,1.0200680235813093,A,917,Correct
2,relearn,19,516,C,75.73877424919115,58.303088890426075,3.7869387124595573,0.9158227786987763,B,733,Incorrect
2,relearn,19,517,A,11.984241957846912,37.312826939301544,0.5992120978923456,0.5861085149858853,A,725,Incorrect
2,relearn,19,518,B,52.48862136316094,64.1534022260237,2.624431068158047,1.0077192856803356,D,367,Incorrect
2,relearn,19,519,D,52.23869290635356,21.540701791904983,2.611934645317678,0.33836055251308594,C,293,Incorrect
2,relearn,19,520,A,43.109261258168296,62.05432989714889,2.1554630629084146,0.9747471346416022,B,520,Correct
2,relearn,19,521,B,52.385430396148465,52.14903664697758,2.6192715198074232,0.8191551521096481,A,2433,Incorrect
2,relearn,19,522,B,65.18014353854777,71.04631749367947,3.2590071769273887,1.115992945513757,C,825,Incorrect
2,relearn,19,523,D,29.441015265966644,22.305405251536776,1.4720507632983322,0.3503724863678556,D,987,Incorrect
2,relearn,19,524,C,67.78398911999177,31.18633041195947,3.3891994559995884,0.4898737325731791,B,592,Incorrect
2,relearn,19,525,A,34.00778777547159,29.110942099324145,1.7003893887735797,0.45727360919157284,A,2467,Incorrect
2,relearn,19,526,A,16.66294985239156,32.28731231285813,0.833147492619578,0.5071679158311718,A,622,Incorrect
2,relearn,19,527,C,87.50765795734151,63.94979042092456,4.375382897867075,1.0045209589249176,C,423,Incorrect
2,relearn,19,528,D,26.930379008950826,32.04186912136315,1.3465189504475412,0.5033125031948005,B,631,Incorrect
2,relearn,19,529,A,28.891289922242517,51.432734997341726,1.4445644961121258,0.8079035121083972,D,6315,Incorrect
2,relearn,19,530,D,58.412769863516615,38.689787925335175,2.9206384931758307,0.6077377675759004,C,1015,Incorrect
2,relearn,19,531,D,47.42812999286219,7.779628452194803,2.3714064996431095,0.12220211796536663,B,1221,Incorrect
2,relearn,19,532,D,31.058640903762498,19.264289062349963,1.552932045188125,0.30260274497454426,A,766,Incorrect
2,relearn,19,533,D,49.322360194119526,31.608650313235216,2.4661180097059763,0.4965075180697423,C,868,Incorrect
2,relearn,19,534,A,46.94672552722069,53.957703813415435,2.3473362763610344,0.8475656295239996,B,1253,Correct
2,relearn,19,535,A,22.06314987001719,44.397524063286454,1.1031574935008595,0.697394677173984,D,3704,Incorrect
2,relearn,19,536,C,56.07368028076857,34.82104911742916,2.8036840140384287,0.546967760488024,B,1414,Incorrect
2,relearn,19,537,A,32.08025589902579,24.460981784945226,1.6040127949512892,0.3842322033758883,A,828,Correct
2,relearn,19,538,A,17.78607372705229,70.31903030294924,0.8893036863526146,1.104568745036517,C,829,Incorrect
2,relearn,19,539,A,44.582120210691826,51.666074799451756,2.2291060105345912,0.811568805148892,A,715,Incorrect
2,relearn,19,540,B,50.227227968222586,94.2996712788372,2.5113613984111294,1.4812557726276367,B,622,Incorrect
2,relearn,19,541,D,73.44517949220483,12.514168957966533,3.6722589746102416,0.19657210632064548,D,464,Correct
2,relearn,19,542,A,27.658766439535338,63.68947468462939,1.382938321976767,1.000431928901124,A,1429,Correct
2,relearn,19,543,B,45.97612801640575,63.720886756130476,2.298806400820288,1.0009253485664331,C,859,Incorrect
2,relearn,19,544,C,79.37334438445517,57.08200616553398,3.968667219222758,0.8966420561090441,B,496,Incorrect
2,relearn,19,545,B,68.72411660288051,61.18413696358328,3.4362058301440253,0.9610781760051247,A,309,Incorrect
2,relearn,19,546,A,37.99250483497612,31.03127540584365,1.8996252417488058,0.48743813423260013,C,364,Incorrect
2,relearn,19,547,D,65.50676469847113,27.855715466533546,3.2753382349235562,0.43755655535074683,D,661,Incorrect
2,relearn,19,548,B,67.00485097389311,69.26103867583377,3.3502425486946557,1.0879498514199897,A,3728,Incorrect
2,relearn,19,549,C,72.6257120780824,57.39685112219129,3.63128560390412,0.9015876291233161,B,349,Incorrect
2,relearn,19,550,A,46.07431739442258,61.37128739226446,2.303715869721129,0.9640179280644298,C,1214,Incorrect
2,relearn,19,551,C,69.55732089992726,51.54963458778887,3.477866044996363,0.8097397665811792,B,293,Incorrect
2,relearn,19,552,A,4.400199359588722,58.51633095525723,0.22000996797943612,0.9191723772203255,A,1003,Incorrect
2,relearn,19,553,C,59.92311120113666,56.56050684790555,2.996155560056833,0.8884503639834763,B,1127,Incorrect
2,relearn,19,554,C,77.78849623391336,62.85222025158503,3.889424811695668,0.9872803670209358,C,541,Incorrect
2,relearn,19,555,C,88.13192583768455,48.46806932812268,4.406596291884227,0.7613346526745551,D,2091,Incorrect
2,relearn,19,556,D,56.15121170551521,40.73552031036658,2.8075605852757604,0.6398720567360272,A,1336,Incorrect
2,relearn,19,557,C,98.92917398233266,56.2409434194746,4.946458699116633,0.8834306733879032,B,970,Correct
2,relearn,19,558,B,59.134176877158055,81.26968157563721,2.9567088438579026,1.276581172988018,D,1412,Incorrect
2,relearn,19,559,B,36.12813762647154,80.25435486502691,1.806406881323577,1.2606324583127841,C,353,Incorrect
2,relearn,19,560,B,64.59017943079573,66.33918706470486,3.2295089715397864,1.0420535136379792,A,500,Correct
2,relearn,19,561,A,33.380652644293995,41.77790672393177,1.6690326322146998,0.6562458242313183,B,824,Incorrect
2,relearn,19,562,C,87.76711197654946,63.94753038313118,4.388355598827473,1.004485458334275,A,379,Incorrect
2,relearn,19,563,D,59.71090062253819,36.41963848658109,2.9855450311269096,0.5720783435791963,A,845,Incorrect
2,relearn,19,564,C,80.60765215613512,35.33437373379061,4.030382607806756,0.5550310447063637,C,942,Incorrect
2,relearn,19,565,A,30.39097125842303,35.22318693202284,1.5195485629211516,0.5532845265083148,A,845,Incorrect
2,relearn,19,566,C,94.11256540645414,32.49438756274965,4.705628270322706,0.5104206462501691,B,887,Correct
2,relearn,19,567,D,69.95527632812494,34.89196156318043,3.4977638164062466,0.5480816505811253,B,781,Incorrect
2,relearn,19,568,C,87.15384795328204,43.268928385519324,4.357692397664102,0.6796667377232518,A,636,Correct
2,relearn,19,569,A,33.658474013262186,35.66999070211604,1.6829237006631093,0.5603029037169198,B,975,Incorrect
2,relearn,19,570,A,26.949329770045154,54.71120979901552,1.3474664885022576,0.8594016738679854,A,600,Incorrect
2,relearn,19,571,B,33.95179634183378,63.81510422858484,1.697589817091689,1.0024053131629456,B,3253,Correct
2,relearn,19,572,D,43.74107503521511,10.875534045097831,2.1870537517607556,0.17083248929972517,A,3427,Incorrect
2,relearn,19,573,D,58.70171409702485,1.7664159725201642,2.935085704851242,0.02774679721226509,D,680,Correct
2,relearn,19,574,D,29.053789028455487,25.124209330493628,1.4526894514227744,0.3946501572996546,C,1575,Incorrect
2,relearn,19,575,A,17.152225952313557,34.68496809048749,0.8576112976156779,0.5448302047153594,A,1781,Incorrect
2,relearn,19,576,C,67.73098497709329,70.56517145492538,3.386549248854664,1.1084351212104886,B,638,Incorrect
2,relearn,19,577,B,74.77721037933728,76.01943226633631,3.7388605189668636,1.194110449689945,D,3927,Incorrect
2,relearn,19,578,B,46.029305974168274,65.53928723899256,2.3014652987084134,1.0294887165576514,A,756,Incorrect
2,relearn,19,579,A,28.423908497085538,65.57366542979847,1.421195424854277,1.0300287279160494,B,622,Incorrect
2,relearn,19,580,A,49.162870729827404,38.46498866329638,2.45814353649137,0.604206629025133,C,845,Incorrect
2,relearn,19,581,A,7.7157278747622335,33.27936098907766,0.3857863937381117,0.5227509799972456,A,871,Correct
2,relearn,19,582,D,75.70957902698609,24.970811594284893,3.7854789513493046,0.39224059129390126,D,677,Correct
2,relearn,19,583,D,48.935584244658116,46.53978208482875,2.4467792122329057,0.7310451874868393,C,372,Incorrect
2,relearn,19,584,A,-0.3232658211714323,51.92523314224372,-0.016163291058571616,0.8156396548780507,B,526,Incorrect
2,relearn,19,585,B,65.80983379320898,91.13098413821362,3.2904916896604495,1.4314821514150993,A,709,Correct
2,relearn,19,586,C,61.24441683571178,50.88432177204833,3.062220841785589,0.799289057309831,C,1173,Incorrect
2,relearn,19,587,B,48.1438219450999,64.15657617934055,2.407191097254995,1.0077691420224508,B,1133,Correct
2,relearn,19,588,C,85.62581894278641,68.39842502608394,4.28129094713932,1.0743999478952877,D,784,Incorrect
2,relearn,19,589,B,52.81535836744209,97.1880030137945,2.640767918372104,1.5266255814259972,B,1967,Correct
2,relearn,19,590,A,0.9640487813336449,52.00045716007571,0.04820243906668224,0.8168212709870231,D,669,Incorrect
2,relearn,19,591,C,55.98043330500595,36.66766723075594,2.7990216652502977,0.5759743699820902,B,1163,Incorrect
2,relearn,19,592,A,39.86732873792975,69.63693229775375,1.9933664368964878,1.093854374625765,C,535,Incorrect
2,relearn,19,593,B,70.04221775188968,68.35140947986451,3.5021108875944837,1.0736614294222506,A,1243,Incorrect
2,relearn,19,594,A,33.472660717144464,56.16481781186573,1.6736330358572231,0.8822348951398327,B,622,Correct
2,relearn,19,595,A,9.641947468776669,65.37711111785272,0.48209737343883347,1.0269412600038483,B,558,Incorrect
2,relearn,19,596,A,32.69931719335416,31.127106463240647,1.634965859667708,0.4889434449621209,C,1222,Correct
2,relearn,19,597,C,69.31860065323517,24.987422044294327,3.4659300326617584,0.3925015076325135,D,1451,Incorrect
2,relearn,19,598,D,45.73088385898198,19.257605849244545,2.2865441929490995,0.3024977653085725,B,647,Correct
2,relearn,19,599,D,48.70667509596578,19.288442861344024,2.4353337547982887,0.30298215196192435,C,1061,Correct
2,relearn,19,600,B,68.48807182365519,69.96419614361952,3.42440359118276,1.0989950230955519,D,1439,Incorrect
2,relearn,19,601,B,37.65853519735273,78.25731588650285,1.8829267598676365,1.229263043393466,B,2743,Correct
2,relearn,19,602,C,51.7515020528312,62.27616466928587,2.58757510264156,0.9782317070938835,D,1752,Incorrect
2,relearn,19,603,D,64.28599565857387,13.789370253248872,3.2142997829286934,0.21660292142618143,C,1051,Incorrect
2,relearn,19,604,B,33.80861290483281,80.53029551812708,1.6904306452416407,1.2649669239558154,B,919,Correct
2,relearn,19,605,D,30.216160712847017,30.719041921082418,1.5108080356423508,0.48253358212294706,C,1011,Incorrect
2,relearn,19,606,B,50.300970920463975,68.44953642662878,2.515048546023199,1.0752028038976198,D,616,Incorrect
2,relearn,19,607,A,48.928413893100185,42.89662421643584,2.4464206946550093,0.6738185975107842,C,653,Incorrect
2,relearn,19,608,A,16.557509729269796,27.73732690395069,0.8278754864634899,0.43569691215835005,B,676,Incorrect
2,relearn,19,609,A,14.371697385676367,66.29495557206764,0.7185848692838184,1.0413587269763471,A,301,Correct
2,relearn,19,610,C,68.01500160910105,50.158746660065304,3.4007500804550523,0.7878917501026638,C,845,Correct
2,relearn,19,611,B,58.63491591708715,61.872980776080055,2.931745795854358,0.9718985093091781,B,756,Correct
2,relearn,19,612,C,73.12405676664298,47.82236303742517,3.656202838332149,0.751191921978395,D,848,Incorrect
2,relearn,19,613,B,51.22912366879081,78.61837142933,2.5614561834395406,1.234934490597884,C,661,Incorrect
2,relearn,19,614,B,62.41521459942652,67.1920979374997,3.120760729971326,1.0554510062986746,B,484,Correct
2,relearn,19,615,C,57.11961767767587,43.32803678343555,2.8559808838837935,0.6805952102665472,C,1972,Correct
2,relearn,19,616,A,38.91563594332388,57.976169915241876,1.945781797166194,0.9106875474449873,B,1903,Incorrect
2,relearn,19,617,B,64.86882521275734,87.03247108040651,3.243441260637867,1.3671028588498564,C,596,Incorrect
2,relearn,19,618,B,26.994600085392978,71.59087680442613,1.349730004269649,1.1245468631641853,A,645,Incorrect
2,relearn,19,619,A,7.3966131113083655,40.625012375010265,0.36983065556541833,0.6381362021466334,B,987,Incorrect
2,relearn,19,620,C,72.6273946421451,64.34070706957623,3.631369732107255,1.0106614632827677,D,830,Incorrect
2,relearn,19,621,D,27.229792403045817,12.981544998391723,1.3614896201522908,0.2039136319959638,A,527,Incorrect
2,relearn,19,622,D,34.50728018319047,18.62234552719178,1.7253640091595233,0.2925191195041822,D,1360,Correct
2,relearn,19,623,B,37.93369549783398,82.67948864350569,1.896684774891699,1.298726370624991,D,859,Incorrect
2,relearn,19,624,A,50.75797876337343,44.86816700496317,2.537898938168672,0.7047875192141612,B,1800,Incorrect
2,relearn,19,625,A,7.3818164517525595,55.15988217421455,0.36909082258762793,0.8664494030569553,A,637,Correct
2,relearn,19,626,B,31.952831016716544,66.10631711728851,1.5976415508358273,1.038395601057754,C,770,Incorrect
2,relearn,19,627,C,77.15121991143064,53.27157086099879,3.857560995571532,0.8367878783105095,D,638,Incorrect
2,relearn,19,628,A,15.859003521173731,32.21230828627917,0.7929501760586866,0.5059897553367212,B,862,Incorrect
2,relearn,19,629,B,68.36129424867504,73.43834038982202,3.418064712433752,1.153566753302457,C,909,Incorrect
2,relearn,19,630,C,61.00942921855247,60.80346027359393,3.050471460927623,0.9550985205418075,B,638,Incorrect
2,relearn,19,631,D,57.28204780992581,46.49827389379185,2.8641023904962903,0.7303931783467126,D,543,Correct
2,relearn,19,632,C,76.73488290550158,70.67253918028331,3.836744145275079,1.1101216494965742,C,525,Correct
2,relearn,19,633,D,40.26444633003149,15.392173871756937,2.0132223165015746,0.2417797017914418,B,1181,Incorrect
2,relearn,19,634,D,57.76707740184956,23.61223820013063,2.8883538700924785,0.3709001703217133,B,1037,Incorrect
2,relearn,19,635,C,80.17686069496936,39.943319197598456,4.008843034748469,0.6274281907558373,B,782,Incorrect
2,relearn,19,636,C,97.71468100165632,55.70230877856085,4.885734050082816,0.8749698202335849,C,543,Correct
2,relearn,19,637,A,50.20239397501475,52.68330940717767,2.5101196987507377,0.8275474890019369,D,613,Incorrect
2,relearn,19,638,B,32.95627844032586,69.36440126174321,1.647813922016293,1.0895734671227353,B,381,Correct
2,relearn,19,639,D,53.28798636596452,-0.3922168963304067,2.6643993182982264,-0.006160928600626976,A,830,Incorrect
2,relearn,19,640,B,25.70976694954411,76.15504760921887,1.2854883474772054,1.1962406905145146,C,3893,Incorrect
2,relearn,19,641,A,15.34858736763628,50.69172247147803,0.7674293683818141,0.79626371457104,B,669,Incorrect
2,relearn,19,642,B,36.0916370647755,81.26499071699884,1.804581853238775,1.2765074891528314,D,1294,Incorrect
2,relearn,19,643,B,27.243387895554154,74.71415695787675,1.3621693947777078,1.1736072330901015,B,725,Correct
2,relearn,19,644,C,70.01615992636212,50.89625377666414,3.500807996318106,0.7994764848000492,C,777,Correct
2,relearn,19,645,D,73.21910337994402,25.537336085256086,3.660955168997201,0.4011395371884703,B,780,Incorrect
2,relearn,19,646,C,62.52526638497696,68.85508956153197,3.1262633192488476,1.0815732176438804,A,680,Incorrect
2,relearn,19,647,B,42.639691560628044,51.697645515754914,2.1319845780314024,0.8120647168009248,D,612,Incorrect
2,relearn,19,648,D,58.508002831130746,16.80693147106326,2.9254001415565374,0.2640026621943971,B,763,Incorrect
2,relearn,19,649,C,77.5509756521901,72.96929955972524,3.877548782609505,1.1461990771721289,C,360,Correct
2,relearn,19,650,B,29.24320343752013,63.712119698094256,1.4621601718760064,1.0007876359408323,B,1156,Correct
2,relearn,19,651,D,65.02901879652865,20.2305563468884,3.2514509398264324,0.31778083598709483,B,720,Incorrect
2,relearn,19,652,C,63.02568550949833,60.11944932917832,3.151284275474916,0.9443541017520523,A,629,Incorrect
2,relearn,19,653,B,51.35478499528386,62.28639675968614,2.567739249764193,0.9783924323940454,C,715,Incorrect
2,relearn,19,654,C,70.59542314053071,42.40188646633897,3.529771157026536,0.666047275104995,B,503,Incorrect
2,relearn,19,655,B,41.78165721001387,98.46241315877077,2.0890828605006933,1.5466439691715863,A,544,Incorrect
2,relearn,19,656,D,53.27673054574462,1.6953467148378536,2.663836527287231,0.026630443923110952,C,628,Incorrect
2,relearn,19,657,D,28.994887870539195,37.78816632455435,1.4497443935269598,0.5935751285892458,A,293,Incorrect
2,relearn,19,658,D,64.13291306198008,19.32677770246188,3.2066456530990037,0.30358431423808635,B,447,Incorrect
2,relearn,19,659,A,22.71991371588485,31.26295662433905,1.1359956857942424,0.4910773743025996,D,772,Incorrect
2,relearn,19,660,C,68.26922830893277,36.185243690323794,3.4134614154466387,0.5683964787293883,C,830,Correct
2,relearn,19,661,D,38.49618751941937,37.750054332116626,1.9248093759709688,0.5929764668119657,A,3990,Incorrect
2,relearn,19,662,C,78.51176385083882,31.85039134874814,3.925588192541941,0.5003047773759354,B,660,Incorrect
2,relearn,19,663,B,60.59483872304946,70.73565467825131,3.0297419361524733,1.1111130654202939,C,758,Incorrect
2,relearn,19,664,C,61.128243811793375,36.9835207297127,3.056412190589669,0.5809357851417563,B,639,Incorrect
2,relearn,19,665,A,34.25942853121447,39.20754911697661,1.7129714265607234,0.6158707413557734,D,540,Incorrect
2,relearn,19,666,A,46.47800387848375,56.39675985010739,2.3239001939241875,0.8858782321568258,A,332,Correct
2,relearn,19,667,D,51.69418520124083,3.120167181892544,2.5847092600620414,0.04901147148302792,B,742,Incorrect
2,relearn,19,668,C,65.03419440598311,70.12531731273124,3.2517097202991554,1.101525908501648,C,707,Correct
2,relearn,19,669,B,48.54042958876203,70.39225490945263,2.4270214794381015,1.1057189544657822,B,664,Correct
2,relearn,19,670,D,55.38387402932533,6.932984816426131,2.7691937014662664,0.10890307083366958,B,644,Incorrect
2,relearn,19,671,C,87.97344829615409,41.71145991768174,4.398672414807704,0.6552020802394705,C,727,Correct
2,relearn,19,672,C,83.88322712094401,25.952560239149854,4.194161356047201,0.40766186294579865,C,1884,Correct
2,relearn,19,673,D,65.95334113640791,6.985641528865102,3.2976670568203956,0.10973020053847188,C,958,Incorrect
2,relearn,19,674,C,51.82645470268719,57.5077461904539,2.5913227351343595,0.903329564782182,D,758,Incorrect
2,relearn,19,675,B,43.29197727236465,68.36499790495553,2.1645988636182323,1.0738748759044494,B,694,Correct
2,relearn,19,676,B,58.87082720525976,70.48164080124546,2.9435413602629876,1.1071230247707367,B,791,Correct
2,relearn,19,677,C,89.63516013270404,45.46852235439035,4.481758006635203,0.71421787899068,B,804,Incorrect
2,relearn,19,678,A,22.22705878647695,26.38075233091736,1.1113529393238475,0.41438788859490905,D,1087,Incorrect
2,relearn,19,679,D,27.35551737879312,37.615106073347526,1.367775868939656,0.590856704520147,A,653,Incorrect
2,relearn,19,680,D,66.96488846723095,18.03144456988518,3.3482444233615474,0.2832372689718142,C,1444,Incorrect
2,relearn,19,681,D,55.25948068363597,28.47109618358397,2.7629740341817985,0.44722293304997895,B,782,Incorrect
2,relearn,19,682,A,37.603515787918184,29.552240277548318,1.8801757893959092,0.46420550476533096,C,1054,Incorrect
2,relearn,19,683,C,84.74218971929824,39.34985351392797,4.237109485964912,0.618106053595953,D,734,Incorrect
2,relearn,19,684,B,42.1398221172916,83.79178911521443,2.10699110586458,1.316198345577514,B,740,Correct
2,relearn,19,685,A,2.2402361893721263,59.84976389472899,0.11201180946860631,0.9401178928538212,D,974,Incorrect
2,relearn,19,686,D,62.903278090917595,6.911486711315515,3.1451639045458797,0.1085653793882615,A,757,Incorrect
2,relearn,19,687,C,87.54327307931494,51.880242733469146,4.377163653965747,0.8149329471896097,B,421,Incorrect
2,relearn,19,688,B,49.04201862867037,96.29080378574405,2.4521009314335185,1.5125324089077488,C,468,Incorrect
2,relearn,19,689,C,55.41269638340367,57.416317071474005,2.7706348191701835,0.9018933995396249,A,647,Incorrect
2,relearn,19,690,C,91.1818974493684,47.502887746177194,4.55909487246842,0.7461736158384544,C,1171,Correct
2,relearn,19,691,B,34.50567010187713,63.93389299518874,1.7252835050938564,1.0042712427454044,B,854,Correct
2,relearn,19,692,D,42.65779881040376,18.634189731136015,2.132889940520188,0.2927051678246763,D,669,Correct
2,relearn,19,693,D,52.35913782655148,-0.7293268699110627,2.617956891327574,-0.011456239682891165,A,606,Incorrect
2,relearn,19,694,C,72.89371544681998,29.54733877780821,3.6446857723409996,0.46412851218745543,C,647,Correct
2,relearn,19,695,A,10.501186583713453,27.709900009576714,0.5250593291856727,0.4352660915089696,A,836,Correct
2,relearn,19,696,C,71.29716230367228,29.918083640630506,3.564858115183614,0.4699521588744489,C,728,Correct
2,relearn,19,697,D,57.01081231348276,1.7100932300056861,2.850540615674138,0.026862081641697517,B,764,Incorrect
2,relearn,19,698,D,59.03912658748591,24.30365269757572,2.9519563293742954,0.3817608838505082,D,503,Correct
2,relearn,19,699,D,56.56433804578313,0.5139050453865259,2.8282169022891566,0.008072401576145196,C,820,Incorrect
2,relearn,19,700,A,22.023342676118432,76.28391720776739,1.1011671338059217,1.1982649694348702,A,654,Correct
2,relearn,19,701,B,52.688309622830204,68.94670924888398,2.6344154811415104,1.0830123763274266,B,1204,Correct
2,relearn,19,702,C,71.30856526363529,62.28789304730168,3.565428263181764,0.9784159360249487,C,853,Correct
2,relearn,19,703,C,76.43151848579492,37.611797946177504,3.8215759242897462,0.5908047405800746,C,824,Correct
2,relearn,19,704,C,79.44368547468726,25.7396254963989,3.9721842737343627,0.4043170918281967,C,709,Correct
2,relearn,19,705,C,84.35857279592295,33.06132519005544,4.217928639796147,0.5193260816751067,C,589,Correct
2,relearn,19,706,B,31.463368118675323,59.696400457967094,1.573168405933766,0.937708865622519,B,1055,Correct
2,relearn,19,707,C,79.28929652185118,48.95576791678728,3.964464826092559,0.7689954041911291,B,654,Incorrect
2,relearn,19,708,C,60.318538531831464,31.944407353725513,3.015926926591573,0.5017815773287192,B,854,Incorrect
2,relearn,19,709,C,81.03197997676543,31.584422999214677,4.051598998838272,0.4961269563110266,C,670,Correct
2,relearn,19,710,C,86.12030596898013,30.12498064006493,4.306015298449006,0.4732020893418136,C,523,Correct
2,relearn,19,711,A,24.467936565845346,58.50442108823057,1.2233968282922674,0.9189852974665447,B,1598,Incorrect
2,relearn,19,712,A,10.601516646183965,50.39706724128815,0.5300758323091983,0.7916352810385082,A,1262,Correct
2,relearn,19,713,B,36.024927056992624,62.643153052149685,1.8012463528496312,0.9839963471316723,D,4493,Incorrect
2,relearn,19,714,D,29.402918161386822,13.455555956092596,1.470145908069341,0.21135937870813443,B,637,Incorrect
2,relearn,19,715,B,42.15324647731784,50.90297963541121,2.1076623238658923,0.7995821343421934,A,1055,Incorrect
2,relearn,19,716,B,37.78319754535532,65.68695572937563,1.8891598772677662,1.0318082877804222,B,445,Correct
2,relearn,19,717,A,3.8952452127023705,52.868094726055766,0.19476226063511853,0.8304500900033304,A,688,Correct
2,relearn,19,718,C,70.7753303144765,76.48684884780782,3.5387665157238253,1.20145261218253,C,507,Correct
2,relearn,19,719,D,66.38652162838346,21.172572026614187,3.319326081419173,0.3325779836820594,B,750,Incorrect
2,relearn,19,720,D,32.57499434893474,44.717907595085734,1.628749717446737,0.7024272499231428,A,535,Incorrect
2,relearn,19,721,B,57.493685661499704,52.55021708003863,2.8746842830749855,0.8254568796159912,C,597,Incorrect
2,relearn,19,722,A,38.25567126509327,58.757821119219415,1.9127835632546635,0.9229656958454144,D,445,Incorrect
2,relearn,19,723,C,85.96867320761869,68.04798610091035,4.298433660380934,1.0688952661310014,C,852,Correct
2,relearn,19,724,D,69.34591878664963,24.714341385212617,3.4672959393324816,0.38821196667047075,B,814,Incorrect
2,relearn,19,725,B,57.02038784438616,91.3747393307728,2.8510193922193077,1.4353110490261909,B,760,Correct
2,relearn,19,726,D,38.40003278551449,46.34400914201633,1.9200016392757246,0.7279699932922835,C,635,Incorrect
2,relearn,19,727,A,31.07683681348292,56.80868580138241,1.5538418406741459,0.8923487498685688,B,1312,Incorrect
2,relearn,19,728,D,60.67371138501565,8.658678040056387,3.0336855692507823,0.13601019660220207,D,404,Correct
2,relearn,19,729,C,55.97825909782454,45.82092481370864,2.798912954891227,0.7197534038771867,C,758,Correct
2,relearn,19,730,D,34.93351406759282,24.08457982473424,1.746675703379641,0.37831969521091025,A,902,Incorrect
2,relearn,19,731,B,35.119482820965466,60.869517877035214,1.7559741410482732,0.9561361509502321,B,639,Correct
2,relearn,19,732,D,57.94351904358231,9.675387392573638,2.897175952179116,0.15198062976572324,B,1300,Incorrect
2,relearn,19,733,A,28.016327855519666,48.141569517531565,1.4008163927759834,0.7562060056427973,B,1525,Incorrect
2,relearn,19,734,D,45.333704514975246,22.028082227392748,2.266685225748762,0.3460163064912447,A,750,Incorrect
2,relearn,19,735,A,28.80655414668912,65.06725134389673,1.440327707334456,1.0220739940563328,B,1341,Incorrect
2,relearn,19,736,B,70.49908432086595,90.60951976986662,3.5249542160432976,1.4232910082715606,D,687,Incorrect
2,relearn,19,737,B,51.38069237583974,98.76260569521325,2.5690346187919872,1.551359382507337,B,1526,Correct
2,relearn,19,738,C,80.04727978025448,29.261869195985614,4.002363989012724,0.4596443664820693,B,790,Incorrect
2,relearn,19,739,A,3.3295742406935993,51.37419005244171,0.16647871203467995,0.8069838902643837,A,668,Correct
2,relearn,19,740,C,77.35534129678274,75.21051042267729,3.867767064839137,1.1814039350831076,C,733,Correct
2,relearn,19,741,C,93.43471244772985,50.419490044779316,4.6717356223864925,0.7919874976121122,B,519,Incorrect
2,relearn,19,742,D,72.45711049007228,24.01930342030678,3.6228555245036143,0.3772943358478998,C,309,Incorrect
2,relearn,19,743,D,63.19660555598895,6.500506750463682,3.159830277799448,0.1021097212593378,B,392,Incorrect
2,relearn,19,744,A,4.075824819445636,53.43215624701097,0.2037912409722818,0.8393103476553582,D,430,Incorrect
2,relearn,19,745,A,4.808359657982347,53.62940456483631,0.24041798289911737,0.8424087169864232,A,293,Correct
2,relearn,19,746,B,46.559443039465634,93.23826972003275,2.327972151973282,1.4645833159293926,B,413,Correct
2,relearn,19,747,D,24.05796412849003,24.586381981147092,1.2028982064245015,0.38620198505162084,B,702,Incorrect
2,relearn,19,748,A,19.736454691228833,55.07552962194827,0.9868227345614415,0.8651243962643985,C,496,Incorrect
2,relearn,19,749,B,56.73257874497344,71.93313516791564,2.836628937248672,1.129923044966027,A,348,Incorrect
2,relearn,19,750,A,27.147621649001252,54.977043886264575,1.3573810824500625,0.8635773859458622,B,740,Incorrect
2,relearn,19,751,D,69.84960249036261,37.69396401384887,3.4924801245181305,0.5920954021529282,D,423,Correct
2,relearn,19,752,A,26.081230502812673,28.221723772130453,1.3040615251406336,0.44330580037082723,A,782,Correct
2,relearn,19,753,C,67.59105928739628,48.0568110837361,3.3795529643698137,0.7548746232780894,C,474,Correct
2,relearn,19,754,D,49.371250756273014,5.9935218820148535,2.468562537813651,0.09414602156833768,B,519,Incorrect
2,relearn,19,755,C,95.94986315493063,59.16175416222816,4.797493157746532,0.9293106612477069,A,503,Incorrect
2,relearn,19,756,C,76.87680496364293,50.690706629648496,3.8438402481821465,0.7962477577648955,C,566,Correct
2,relearn,19,757,A,50.047495956674005,42.962785580903784,2.5023747978337,0.6748578577936041,C,661,Incorrect
2,relearn,19,758,D,55.19308148588661,38.99139541373455,2.7596540742943305,0.6124754069250162,D,468,Correct
2,relearn,19,759,C,66.82535444415582,69.72952266345268,3.341267722207791,1.0953087806891297,A,766,Incorrect
2,relearn,19,760,C,55.12187736318357,47.06443507551578,2.7560938681591782,0.7392864173929707,B,341,Incorrect
2,relearn,19,761,A,29.331788742968644,58.081692932633736,1.4665894371484323,0.9123450991261017,A,1870,Correct
2,relearn,19,762,C,62.917414182541705,60.096460769622325,3.1458707091270854,0.9439929983029635,C,2181,Correct
2,relearn,19,763,D,64.31786455753553,24.872968818770104,3.2158932278767765,0.39070368057008087,C,495,Incorrect
2,relearn,19,764,D,61.52212192053206,16.394360684519008,3.076106096026603,0.2575220154339312,D,1341,Correct
2,relearn,19,765,B,64.4804887440655,71.02479563104605,3.224024437203275,1.1156548808860534,C,677,Incorrect
2,relearn,19,766,D,44.602418203225206,-0.9416141776062688,2.23012091016126,-0.014790840914419243,A,879,Incorrect
2,relearn,19,767,D,27.60227407830901,35.42285026027597,1.3801137039154503,0.5564208307344715,B,620,Incorrect
2,relearn,19,768,A,39.558472705818076,57.829443509219594,1.9779236352909038,0.908382774448751,C,664,Incorrect
2,relearn,19,769,D,65.59600430735891,11.008912879783555,3.2798002153679455,0.17292759913569036,B,946,Incorrect
2,relearn,19,770,A,44.12079976595611,67.11678864663754,2.2060399882978055,1.0542680507240767,C,503,Incorrect
2,relearn,19,771,C,89.98164225998882,58.481778843598555,4.4990821129994405,0.918629633919561,D,318,Incorrect
2,relearn,19,772,A,19.01751616427899,35.68442638892651,0.9508758082139495,0.5605296589550864,A,518,Correct
2,relearn,19,773,C,75.68898896015729,71.45125110794217,3.7844494480078645,1.1223536278525534,B,764,Incorrect
2,relearn,19,774,B,58.68587830297847,92.53184546487209,2.9342939151489236,1.453486829677741,C,576,Incorrect
2,relearn,19,775,D,50.125332815805685,19.866923488839184,2.506266640790284,0.31206890440983837,D,411,Correct
2,relearn,19,776,D,65.11112688763211,5.13070548962455,3.2555563443816053,0.08059293336968654,B,1104,Incorrect
2,relearn,19,777,D,56.59499828294447,7.479776056639594,2.8297499141472233,0.1174920475501789,A,445,Incorrect
2,relearn,19,778,B,48.11653730653891,94.41246176278582,2.4058268653269455,1.4830274814064761,B,862,Correct
2,relearn,19,779,C,72.36444187614036,67.30540505574433,3.618222093807018,1.0572308303500586,C,727,Correct
2,relearn,19,780,B,64.31904934166901,56.38000448590762,3.2159524670834507,0.8856150395114347,A,766,Incorrect
2,relearn,19,781,B,63.735245783227725,64.01759330505506,3.186762289161386,1.0055860041383005,B,1172,Correct
2,relearn,19,782,B,44.632991517002466,70.70997530117947,2.231649575850123,1.1107096947085056,B,1916,Correct
2,relearn,19,783,C,90.6758202259474,45.256069686482725,4.53379101129737,0.7108806802870093,A,1038,Incorrect
2,relearn,19,784,B,51.717977544104926,81.90124211423193,2.5858988772052465,1.28650170272975,C,552,Incorrect
2,relearn,19,785,C,87.60243029732122,26.743142750687955,4.380121514866061,0.42008030399732205,B,508,Incorrect
2,relearn,19,786,C,84.76152964279335,50.71306962467513,4.238076482139667,0.7965990348693353,C,653,Correct
2,relearn,19,787,D,55.88837928907857,37.63944307906018,2.7944189644539286,0.5912389893119332,B,680,Incorrect
2,relearn,19,788,C,73.4867759930209,31.840406369683706,3.674338799651045,0.50014793369156,D,347,Incorrect
2,relearn,19,789,C,73.12098120679175,71.49146124161742,3.6560490603395874,1.1229852471553234,C,501,Correct
2,relearn,19,790,B,30.729627887829086,67.87114657883444,1.5364813943914544,1.0661174774139115,A,2317,Incorrect
2,relearn,19,791,D,31.963093153640912,38.18004436223602,1.5981546576820456,0.5997307344106654,B,591,Incorrect
2,relearn,19,792,D,35.94725411099428,6.562414803367837,1.797362705549714,0.1030821706803465,C,2294,Incorrect
2,relearn,19,793,D,48.46399412346432,45.28302254742489,2.423199706173216,0.711304054836655,B,871,Incorrect
2,relearn,19,794,C,74.24028262466629,51.23248407476249,3.712014131233315,0.8047579779721497,A,413,Incorrect
2,relearn,19,795,C,87.80612069952609,62.630973164299824,4.390306034976304,0.9838050259007192,B,2388,Incorrect
2,relearn,19,796,D,62.76973552062093,33.92025313866098,3.1384867760310464,0.5328180903416174,C,456,Incorrect
2,relearn,19,797,B,66.00523946753242,59.83703891647487,3.300261973376621,0.93991800936282,C,1628,Incorrect
2,relearn,19,798,A,-0.726956997252028,51.18395262822866,-0.0363478498626014,0.8039956477926556,A,2053,Correct
2,relearn,19,799,D,69.18118679123171,17.095054492148336,3.4590593395615854,0.268528488026252,C,3644,Incorrect
2,relearn,19,800,A,48.455616063677006,56.74093035682259,2.4227808031838505,0.8912844498342196,B,649,Incorrect
2,relearn,19,801,A,51.314618900930995,49.510219879158626,2.5657309450465497,0.7777047152499004,C,1011,Incorrect
2,relearn,19,802,B,68.4649286559747,63.463170892267584,3.423246432798735,0.996877157243307,D,549,Incorrect
2,relearn,19,803,C,95.85429275672453,52.030202997209564,4.792714637836227,0.817288517504096,C,597,Correct
2,relearn,19,804,D,52.30438520190501,47.65678923068041,2.615219260095251,0.7485910947039138,B,782,Incorrect
2,relearn,19,805,A,30.80120072451879,39.804222099791566,1.5400600362259393,0.6252432586528083,C,902,Incorrect
2,relearn,19,806,C,93.12595256441178,41.42056837741651,4.656297628220589,0.6506327666100269,B,663,Incorrect
2,relearn,19,807,A,18.64023187892659,50.52725003916515,0.9320115939463294,0.7936801876456789,A,667,Correct
2,relearn,19,808,C,77.11824832834444,35.99600189984252,3.8559124164172216,0.5654238756357475,C,326,Correct
2,relearn,19,809,D,26.81450342573369,26.187985709065444,1.3407251712866843,0.4113599175795724,B,814,Incorrect
2,relearn,19,810,A,20.877075492342396,24.49628584081817,1.04385377461712,0.38478675818875013,A,397,Correct
2,relearn,19,811,B,37.74989301253594,70.86434825630805,1.887494650626797,1.11313457941723,C,295,Incorrect
2,relearn,19,812,A,39.22319857496749,44.07652854309435,1.9611599287483745,0.6923524913336302,B,318,Incorrect
2,relearn,19,813,B,59.14927371228344,94.39815871481692,2.957463685614172,1.4828028096543606,A,866,Incorrect
2,relearn,19,814,A,43.58880110904767,51.20249354106864,2.1794400554523836,0.8042868877705004,B,696,Incorrect
2,relearn,19,815,B,45.46460021804804,65.21761615440417,2.273230010902402,1.0244359189765757,D,380,Incorrect
2,relearn,19,816,A,31.465578842473104,27.796283919938,1.5732789421236553,0.4366230067998666,C,631,Incorrect
2,relearn,19,817,A,22.521579884838992,36.36620157538771,1.1260789942419496,0.571238958541018,B,670,Incorrect
2,relearn,19,818,C,75.08474619134364,35.60761288515653,3.754237309567182,0.559323075259385,D,765,Incorrect
2,relearn,19,819,C,69.15303470145551,29.651497108726552,3.4576517350727753,0.46576462742357166,C,726,Correct
2,relearn,19,820,D,38.823906212572375,47.85298903308262,1.9411953106286188,0.7516729939932266,B,1045,Incorrect
2,relearn,19,821,B,27.971346213340063,84.74323380504633,1.3985673106670031,1.331143603816879,C,541,Incorrect
2,relearn,19,822,D,46.03670536919575,22.907380143100802,2.3018352684597874,0.359828285852771,B,907,Incorrect
2,relearn,19,823,D,74.15871621422876,14.781427967013887,3.7079358107114384,0.23218612755368767,C,800,Incorrect
2,relearn,19,824,B,31.920057991849646,70.30143218320008,1.5960028995924824,1.1042923144179122,B,771,Correct
2,relearn,19,825,A,37.96809958210152,57.460416582236796,1.8984049791050763,0.9025861130348214,A,1073,Correct
2,relearn,19,826,B,43.14113625711307,96.2614485133044,2.1570568128556533,1.5120712973665462,C,845,Incorrect
2,relearn,19,827,B,60.37458186066913,91.80128594395278,3.0187290930334565,1.44201122755809,D,715,Incorrect
2,relearn,19,828,A,17.01935527541496,57.44565322005191,0.850967763770748,0.9023542106839095,B,901,Incorrect
2,relearn,19,829,B,33.674212629729055,56.79513710867609,1.6837106314864527,0.8921359275012092,A,829,Incorrect
2,relearn,19,830,B,28.24548635243915,81.57510858465312,1.4122743176219574,1.2813788092266796,C,804,Incorrect
2,relearn,19,831,C,90.88833193275737,42.63922512781876,4.544416596637868,0.6697753820815837,C,992,Correct
2,relearn,19,832,C,66.5998660924182,46.01824734861685,3.32999330462091,0.7228529390074633,C,700,Correct
2,relearn,19,833,A,18.05964206563352,58.42918316367111,0.9029821032816758,0.917803462911208,B,1366,Incorrect
2,relearn,19,834,A,37.07837623414952,66.13183684244808,1.853918811707476,1.0387964639631686,A,854,Correct
2,relearn,19,835,C,60.490749933604384,66.43420952686117,3.024537496680219,1.0435461229831604,C,712,Correct
2,relearn,19,836,B,52.12690066341935,77.43113582062153,2.6063450331709674,1.2162854372658904,B,1485,Correct
2,relearn,19,837,D,29.921839349586158,7.2464156619341225,1.4960919674793078,0.11382643104195128,D,756,Correct
2,relearn,19,838,C,83.76179308931854,69.99734429742327,4.188089654465927,1.0995157130779016,A,869,Incorrect
2,relearn,19,839,D,70.55093367560632,11.58888860517634,3.5275466837803156,0.18203783652646224,B,741,Incorrect
2,relearn,19,840,A,41.12984437413314,68.06530395657958,2.056492218706657,1.0691672943717334,C,624,Incorrect
2,relearn,19,841,A,19.892548325917993,44.688845557668955,0.9946274162958997,0.7019707445069083,B,1166,Incorrect
2,relearn,19,842,A,43.79666300376387,58.42355203345657,2.189833150188193,0.9177150093246409,A,820,Correct
2,relearn,19,843,D,45.50402581725011,10.838521876541082,2.2752012908625057,0.17025110351556863,D,1014,Correct
2,relearn,19,844,A,1.22872380463701,42.95111638505779,0.0614361902318505,0.6746745584938887,A,829,Correct
2,relearn,19,845,B,31.635945493718726,72.16028649365633,1.5817972746859363,1.1334911296470274,C,750,Incorrect
2,relearn,19,846,A,23.77187479698695,32.11538368295504,1.1885937398493476,0.5044672672279453,C,1157,Incorrect
2,relearn,19,847,C,73.38803762853489,64.3986809355697,3.6694018814267446,1.0115721146402943,C,638,Correct
2,relearn,19,848,B,35.87777829870653,77.87544001027503,1.7938889149353263,1.2232645511567635,B,462,Correct
2,relearn,19,849,D,28.62429802679012,32.61515394689895,1.431214901339506,0.5123176401763895,B,781,Incorrect
2,relearn,19,850,C,58.60053017070191,70.68113854473432,2.930026508535095,1.1102567279974986,C,681,Correct
2,relearn,19,851,A,33.90596844121397,71.32983828703311,1.6952984220606988,1.120446479721456,B,755,Incorrect
2,relearn,19,852,D,62.95155738266151,30.439563542137677,3.1475778691330754,0.4781435460122972,C,605,Incorrect
2,relearn,19,853,D,49.45563073766408,48.45103065200474,2.472781536883204,0.7610670097759598,D,740,Correct
2,relearn,19,854,C,91.004225935703,30.70233790700122,4.55021129678515,0.48227119608333224,C,854,Correct
2,relearn,19,855,B,69.79660027158928,91.00885467320597,3.489830013579464,1.429563746264825,C,716,Incorrect
2,relearn,19,856,B,48.013425317964256,90.56172668280175,2.400671265898213,1.4225402762154835,D,824,Incorrect
2,relearn,19,857,D,66.15639132395465,20.15413624872751,3.3078195661977325,0.31658043189225055,B,1124,Incorrect
2,relearn,19,858,B,71.41250256722395,74.65683360042792,3.570625128361198,1.1727067998968999,C,807,Incorrect
2,relearn,19,859,C,79.53982178962622,31.31310683284302,3.9769910894813107,0.49186513193565995,D,1365,Incorrect
2,relearn,19,860,C,83.67849004338373,28.922760344964345,4.183924502169186,0.4543176571063908,C,732,Correct
2,relearn,19,861,A,-0.47082678763794306,45.504278579814255,-0.023541339381897154,0.7147795364662393,A,765,Correct
2,relearn,19,862,D,73.0119686000068,20.383470427875945,3.65059843000034,0.3201828047543993,D,789,Correct
2,relearn,19,863,A,24.966728705511397,51.40739352295583,1.24833643527557,0.8075054491595877,A,927,Correct
2,relearn,19,864,A,3.4150534588483907,60.35830778021982,0.17075267294241953,0.9481060815272512,A,733,Correct
2,relearn,19,865,A,23.612484223772668,26.548050546110495,1.1806242111886334,0.41701580281395617,C,742,Incorrect
2,relearn,19,866,A,14.776936247657114,30.186534652750957,0.7388468123828557,0.47416897751208054,D,628,Incorrect
2,relearn,19,867,A,15.945065279095125,38.66539056207374,0.7972532639547564,0.6073545346899549,C,453,Incorrect
2,relearn,19,868,B,62.18059227701409,62.140693550218955,3.1090296138507045,0.9761037317317126,B,479,Correct
2,relearn,19,869,D,54.16037226986385,16.01633616466402,2.7080186134931927,0.25158402016166503,D,783,Correct
2,relearn,19,870,A,5.610017029894916,52.42061819890588,0.2805008514947458,0.8234211451515906,A,524,Correct
2,relearn,19,871,B,55.651120876808655,63.723291497874534,2.782556043840433,1.0009631221614177,C,632,Incorrect
2,relearn,19,872,A,29.841011864474957,65.59091882851284,1.4920505932237478,1.030299743669302,A,461,Correct
2,relearn,19,873,D,47.50872069288446,11.160491059456422,2.3754360346442227,0.17530858361421434,D,700,Correct
2,relearn,19,874,A,21.11049558325731,40.042739217470086,1.0555247791628657,0.6289898767760796,D,657,Incorrect
2,relearn,19,875,C,81.03630980591174,48.2613564755285,4.051815490295587,0.7580876147789927,D,781,Incorrect
2,relearn,19,876,A,37.87971313601174,65.8854340303114,1.8939856568005868,1.0349259776410062,C,313,Incorrect
2,relearn,19,877,C,50.60408402823313,49.983794543959405,2.5302042014116566,0.7851436086892223,B,391,Incorrect
2,relearn,19,878,B,58.13094615521065,74.05148097514117,2.906547307760533,1.1631979430947392,A,565,Incorrect
2,relearn,19,879,A,31.904800156736048,45.78070646385567,1.5952400078368023,0.7191216555149987,D,652,Incorrect
2,relearn,19,880,D,41.58665117108569,12.291079846363694,2.0793325585542846,0.1930678307501087,C,502,Incorrect
2,relearn,19,881,A,43.41464584345756,48.172911128838535,2.170732292172878,0.7566983185219657,B,471,Incorrect
2,relearn,19,882,A,17.607207380177602,55.189646720329826,0.88036036900888,0.866916943454021,A,702,Correct
2,relearn,19,883,C,67.40458008122617,36.561722020845586,3.3702290040613088,0.5743101865164033,D,830,Incorrect
2,relearn,19,884,B,41.300776508980356,96.00585900708023,2.065038825449018,1.5080565067911036,A,588,Incorrect
2,relearn,19,885,B,48.23421784621454,98.78862420029387,2.411710892310727,1.5517680802294305,B,589,Correct
2,relearn,19,886,C,94.87971851779278,55.59311817209941,4.743985925889639,0.8732546581980836,C,741,Correct
2,relearn,19,887,A,24.8607393749723,61.43499306877141,1.243036968748615,0.9650186144909606,B,807,Incorrect
2,relearn,19,888,D,71.68693963231524,10.531132481643553,3.584346981615762,0.16542264219156116,A,541,Incorrect
2,relearn,19,889,C,55.55257993876826,53.62690528111436,2.7776289969384127,0.8423694583295228,C,664,Correct
2,relearn,19,890,D,34.07592197779648,43.77567617042187,1.7037960988898242,0.6876267133146156,D,700,Correct
2,relearn,19,891,D,58.45425854714396,8.760207094978615,2.922712927357198,0.13760501126755,D,871,Correct
2,relearn,19,892,D,44.363642874306954,8.20988437243545,2.2181821437153477,0.12896056215632432,C,830,Incorrect
2,relearn,19,893,D,35.57445464237505,35.61276075438884,1.7787227321187526,0.5594039378001944,D,794,Correct
2,relearn,19,894,D,69.48894662277132,35.552040787828794,3.474447331138566,0.5584501507958382,A,990,Incorrect
2,relearn,19,895,D,53.37924074647392,18.279915122725193,2.668962037323696,0.28714023528899213,B,359,Incorrect
2,relearn,19,896,D,31.23178178800112,37.19930696629852,1.561589089400056,0.5843253474197753,C,957,Incorrect
2,relearn,19,897,D,46.83570406274427,15.719710689962906,2.3417852031372135,0.24692463810072202,B,484,Incorrect
2,relearn,19,898,A,43.55346519360667,43.12216543750716,2.177673259680333,0.6773613907267808,B,689,Incorrect
