experiment,condition,subject,trial,cat,x,y,xt,yt,resp,rt,fb
2,relearn,1,0,B,43.64648417008783,52.839087053602626,2.1823242085043915,0.8299944385499478,D,3727,Incorrect
2,relearn,1,1,C,65.91407730948296,69.74435304819414,3.2957038654741484,1.095541735827898,C,958,Correct
2,relearn,1,2,B,42.20314704797951,62.287866491724785,2.110157352398976,0.9784155188909222,C,1020,Incorrect
2,relearn,1,3,C,92.89639375764423,65.08921492310527,4.644819687882212,1.0224189971517732,C,845,Correct
2,relearn,1,4,D,31.276761893852303,20.749733296588303,1.5638380946926151,0.32593604844254664,B,613,Incorrect
2,relearn,1,5,D,59.85462744460169,42.94788286252911,2.9927313722300846,0.6746237664407821,C,1205,Incorrect
2,relearn,1,6,D,39.60971592650226,26.305886733517163,1.980485796325113,0.4132119025409136,A,776,Incorrect
2,relearn,1,7,C,60.24201279927141,68.28933863511449,3.01210063996357,1.0726864228729065,C,974,Correct
2,relearn,1,8,B,33.20760190683534,93.45457799351453,1.6603800953417673,1.467981078343798,D,1053,Incorrect
2,relearn,1,9,C,87.88672494434135,33.97531932467771,4.394336247217068,0.5336830679688742,C,1525,Correct
2,relearn,1,10,D,58.35242146858997,35.44666081188312,2.9176210734294985,0.5567948460045061,A,1005,Incorrect
2,relearn,1,11,C,73.31955406837636,74.64950268973752,3.665977703418818,1.1725916462210544,C,992,Correct
2,relearn,1,12,A,45.419264488147064,66.23181446747127,2.270963224407353,1.0403669088246494,A,1446,Correct
2,relearn,1,13,D,58.873061346386024,8.898888471513853,2.943653067319301,0.13978341323611412,B,1011,Incorrect
2,relearn,1,14,D,33.72778489690667,6.659473113901814,1.6863892448453333,0.10460675905706342,B,512,Incorrect
2,relearn,1,15,C,72.11127239774173,73.0640073355645,3.6055636198870866,1.1476867434362008,C,757,Correct
2,relearn,1,16,A,30.44451066405205,58.20325911003293,1.5222255332026027,0.9142546561753133,C,1406,Incorrect
2,relearn,1,17,D,53.52969507373179,22.077974537562618,2.676484753686589,0.3468000130667462,B,1078,Incorrect
2,relearn,1,18,C,88.35420262352139,44.081574578009594,4.417710131176069,0.6924317542647276,C,580,Correct
2,relearn,1,19,D,38.67975326012182,46.03173437227176,1.933987663006091,0.7230647926796286,D,710,Correct
2,relearn,1,20,B,65.51941989613142,60.18691817611621,3.275970994806571,0.9454138999214834,C,742,Incorrect
2,relearn,1,21,C,72.54185611623984,75.93558593838691,3.627092805811992,1.1927933946503635,C,732,Correct
2,relearn,1,22,C,70.16536416198919,33.87085091085389,3.5082682080994596,0.5320420819618686,C,783,Correct
2,relearn,1,23,B,29.948622053400673,80.58758501137771,1.4974311026700338,1.2658668252114356,B,1148,Correct
2,relearn,1,24,A,6.73560067148933,63.96579524396458,0.3367800335744665,1.00477236209734,B,1055,Incorrect
2,relearn,1,25,D,45.23557421260644,13.347991424770017,2.2617787106303218,0.20966975900118517,A,1132,Incorrect
2,relearn,1,26,D,34.31972401091204,43.14220802750572,1.715986200545602,0.6776762189942728,D,702,Correct
2,relearn,1,27,A,31.270722289088717,39.09624665748939,1.563536114454436,0.6141224064105159,D,582,Incorrect
2,relearn,1,28,B,69.98127906184612,69.87133573449762,3.499063953092306,1.0975363752000185,C,596,Incorrect
2,relearn,1,29,B,31.336153768669618,57.36221869426327,1.566807688433481,0.9010436242175429,B,3645,Correct
2,relearn,1,30,C,84.69195514462935,68.12049456016206,4.234597757231467,1.070034226345543,C,652,Correct
2,relearn,1,31,D,42.41305917334168,23.91222565277771,2.120652958667084,0.3756123622087392,D,784,Correct
2,relearn,1,32,D,32.321379661870964,23.620221217846954,1.6160689830935482,0.37102556727076874,A,645,Incorrect
2,relearn,1,33,C,55.26086885682889,41.83269958314064,2.7630434428414445,0.6571065084511172,C,527,Correct
2,relearn,1,34,C,77.50098535455831,63.99906480517209,3.8750492677279156,1.0052949591427287,C,587,Correct
2,relearn,1,35,B,63.764626361820724,93.549409306247,3.188231318091036,1.4694706851208508,C,630,Incorrect
2,relearn,1,36,D,43.001948496149495,11.09912819038716,2.150097424807475,0.17434469792085838,D,877,Correct
2,relearn,1,37,A,4.402292288054358,44.304881848249174,0.2201146144027179,0.695939456663117,B,582,Incorrect
2,relearn,1,38,B,36.060666774026004,64.30995806034605,1.8030333387013002,1.0101784589752543,D,845,Incorrect
2,relearn,1,39,A,34.11565135722272,40.392415756424015,1.7057825678611358,0.6344825830056314,A,677,Correct
2,relearn,1,40,D,71.49569802440271,14.383731533591515,3.5747849012201356,0.2259391265856948,C,855,Incorrect
2,relearn,1,41,A,10.27200909086613,61.04477925060671,0.5136004545433065,0.9588891501685833,D,2662,Incorrect
2,relearn,1,42,C,90.25086118741336,49.402281131508936,4.512543059370668,0.7760092173666305,C,831,Correct
2,relearn,1,43,B,28.718276318336645,81.82480933503284,1.435913815916832,1.2853010994416234,D,1557,Incorrect
2,relearn,1,44,A,47.45113718437712,42.90173595000073,2.3725568592188555,0.6738988924338571,D,1013,Incorrect
2,relearn,1,45,A,8.708170818642703,54.612991380125244,0.4354085409321351,0.857858862551821,B,1111,Incorrect
2,relearn,1,46,D,70.82130450398482,17.064776737067007,3.541065225199241,0.2680528861615985,C,420,Incorrect
2,relearn,1,47,B,61.61283225884789,68.81579735012133,3.0806416129423946,1.0809560170303256,C,449,Incorrect
2,relearn,1,48,A,1.027695819876623,58.3257013225639,0.051384790993831156,0.9161779739521962,C,2555,Incorrect
2,relearn,1,49,C,68.71295827146693,69.79528799040223,3.4356479135733466,1.0963418200291577,C,718,Correct
2,relearn,1,50,A,1.5640690064453615,50.10898395493272,0.07820345032226808,0.7871100793583273,D,1822,Incorrect
2,relearn,1,51,C,52.19478644201064,38.25353023622522,2.609739322100532,0.6008850478200009,D,1231,Incorrect
2,relearn,1,52,C,53.52883130037023,62.82165431601597,2.6764415650185116,0.9868002384277665,B,1987,Incorrect
2,relearn,1,53,B,45.22846539796702,96.52296719184018,2.261423269898351,1.5161792231628688,A,840,Incorrect
2,relearn,1,54,D,63.12880867480111,21.726943512386107,3.1564404337400553,0.341286030617363,C,2100,Incorrect
2,relearn,1,55,C,60.53783165948953,47.253741209339125,3.0268915829744767,0.7422600311894654,A,320,Incorrect
2,relearn,1,56,D,32.34831037584872,38.4949791831483,1.617415518792436,0.6046777190093536,B,493,Incorrect
2,relearn,1,57,A,12.716708321097459,26.467939357778032,0.6358354160548729,0.4157574192102781,D,268,Incorrect
2,relearn,1,58,D,33.172535163006046,32.11818918535782,1.6586267581503022,0.5045113359566363,C,479,Incorrect
2,relearn,1,59,A,12.571262447267962,30.04419160372938,0.6285631223633981,0.4719330581266018,B,839,Incorrect
2,relearn,1,60,C,66.77531974923484,74.1554416205725,3.3387659874617417,1.164830953094487,C,541,Correct
2,relearn,1,61,B,49.91721171051966,53.871954892950924,2.495860585525983,0.8462186886310767,D,1310,Incorrect
2,relearn,1,62,B,52.35874587812727,73.40320140910833,2.6179372939063636,1.1530147914841335,B,738,Correct
2,relearn,1,63,B,40.28780014919393,58.66531434528373,2.014390007459696,0.9215126028383965,D,1456,Incorrect
2,relearn,1,64,C,68.23909836233202,46.688482228303585,3.4119549181166007,0.7333809638784807,C,879,Correct
2,relearn,1,65,D,43.160426721477435,41.70657368674406,2.158021336073872,0.6551253275033826,B,1389,Incorrect
2,relearn,1,66,C,88.71634088128056,48.01002231269011,4.435817044064027,0.7541396669811465,C,509,Correct
2,relearn,1,67,C,53.36190855761972,36.960056833951505,2.6680954278809863,0.5805672151290164,C,598,Correct
2,relearn,1,68,D,73.4488196305137,27.938728380987413,3.6724409815256847,0.43886051916175356,C,590,Incorrect
2,relearn,1,69,A,17.321428344599024,69.29331904601419,0.8660714172299513,1.0884569102890593,A,1310,Correct
2,relearn,1,70,B,54.91614603568564,63.5304048896549,2.745807301784282,0.9979332664046245,A,932,Incorrect
2,relearn,1,71,D,64.75127503044006,11.588950888332912,3.237563751522003,0.18203881486799792,C,878,Incorrect
2,relearn,1,72,C,55.56337791078478,35.66886232004169,2.7781688955392387,0.5602851791327439,C,685,Correct
2,relearn,1,73,A,24.015110598517484,64.46877338842016,1.200755529925874,1.0126731243150298,C,1870,Incorrect
2,relearn,1,74,D,66.01424255431569,12.509406384022812,3.300712127715784,0.19649729598407667,C,696,Incorrect
2,relearn,1,75,D,72.04782202962731,30.87643272342524,3.6023911014813654,0.48500587106486115,C,532,Incorrect
2,relearn,1,76,C,67.98608334889893,37.59245592289424,3.3993041674449467,0.5905009167888132,C,518,Correct
2,relearn,1,77,C,78.72218486196832,43.491891993379426,3.936109243098416,0.6831690418856077,C,1079,Correct
2,relearn,1,78,C,57.1646838877642,63.337701039957835,2.8582341943882104,0.9949062814119908,A,1869,Incorrect
2,relearn,1,79,A,12.816254415267496,65.49365822059187,0.6408127207633748,1.028771977612661,A,782,Correct
2,relearn,1,80,D,65.01838497235539,38.4018691152643,3.25091924861777,0.6032151494831554,B,838,Incorrect
2,relearn,1,81,A,20.146092580500746,68.25896017014193,1.0073046290250374,1.072209239060981,A,797,Correct
2,relearn,1,82,B,47.57654932498637,69.57142575295823,2.378827466249318,1.0928254002263067,C,718,Incorrect
2,relearn,1,83,D,41.58826613755356,9.261003860327683,2.0794133068776777,0.14547150846236082,D,980,Correct
2,relearn,1,84,A,35.06173709570472,73.97482838230725,1.753086854785236,1.1619938869821107,C,959,Incorrect
2,relearn,1,85,A,24.715640710040326,24.811896664807172,1.2357820355020164,0.3897443614189365,A,446,Correct
2,relearn,1,86,D,59.52162354796859,26.702685360599133,2.9760811773984295,0.41944480079988977,A,1013,Incorrect
2,relearn,1,87,D,49.087564578976725,-0.06908360023172477,2.454378228948836,-0.0010851626548576032,D,863,Correct
2,relearn,1,88,C,70.87892403890123,31.18342893428714,3.5439462019450616,0.48982815626847936,C,781,Correct
2,relearn,1,89,B,54.072629215674596,64.01115786040596,2.70363146078373,1.0054849164101396,C,1086,Incorrect
2,relearn,1,90,C,68.66689333284175,71.59642692449152,3.4333446666420877,1.1246340442463052,C,734,Correct
2,relearn,1,91,A,12.752112343671861,73.81510529085867,0.6376056171835931,1.1594849625285932,A,811,Correct
2,relearn,1,92,A,0.9014709711487612,58.58519598222143,0.04507354855743806,0.9202541065343255,C,4871,Incorrect
2,relearn,1,93,A,24.981660156601677,66.91744187866533,1.2490830078300839,1.0511367190151848,B,2191,Incorrect
2,relearn,1,94,D,61.658067204832165,18.48624517859543,3.082903360241608,0.2903812602276757,D,1061,Correct
2,relearn,1,95,B,51.63538740893806,99.70108904694503,2.581769370446903,1.5661010445239214,B,1159,Correct
2,relearn,1,96,C,95.67501298293081,66.05891026919919,4.7837506491465405,1.0376509360293176,C,868,Correct
2,relearn,1,97,B,37.81679982949811,87.79665625352283,1.8908399914749054,1.3791066514790784,A,2294,Incorrect
2,relearn,1,98,A,29.054277850255744,26.27158592167995,1.4527138925127872,0.4126731066485138,D,1147,Incorrect
2,relearn,1,99,D,68.58200117496656,29.0167250974954,3.429100058748328,0.45579365198763055,C,585,Incorrect
2,relearn,1,100,A,30.222907210827888,26.928089295757328,1.5111453605413945,0.42298543753380585,D,691,Incorrect
2,relearn,1,101,D,28.360787647429877,23.216927672662763,1.4180393823714939,0.36469064707681453,D,685,Correct
2,relearn,1,102,C,92.95182267427737,38.20698823553576,4.647591133713869,0.600153967782754,C,1167,Correct
2,relearn,1,103,C,94.82946211678353,59.40716153715475,4.741473105839177,0.9331655112787375,C,1640,Correct
2,relearn,1,104,A,19.99485240911204,24.882041423401354,0.9997426204556019,0.3908461927103731,D,1157,Incorrect
2,relearn,1,105,D,59.76656923448964,7.613743439480512,2.988328461724482,0.1195964022789473,D,723,Correct
2,relearn,1,106,D,63.42841486422117,38.684151609219036,3.1714207432110584,0.6076492325293815,D,2262,Correct
2,relearn,1,107,B,28.7101084355107,87.49787790769929,1.435505421775535,1.3744134521976237,C,1159,Incorrect
2,relearn,1,108,D,31.27522129958258,20.312654005735144,1.563761064979129,0.3190704229966441,D,1005,Correct
2,relearn,1,109,D,63.13910506410381,17.34483997098209,3.1569552532051905,0.2724521091526397,D,1069,Correct
2,relearn,1,110,D,23.552874862238458,28.348386179093968,1.1776437431119229,0.44529540880684026,A,2087,Incorrect
2,relearn,1,111,A,32.65155658336353,61.46866886485681,1.6325778291681763,0.965547592658889,C,1004,Incorrect
2,relearn,1,112,D,47.622207484635766,50.19117795859431,2.3811103742317883,0.7884011797486892,C,653,Incorrect
2,relearn,1,113,A,36.941754623498156,64.53202693533069,1.8470877311749079,1.0136667087064677,C,725,Incorrect
2,relearn,1,114,A,45.448390003731646,58.41468674260433,2.272419500186582,0.9175757536615742,B,783,Incorrect
2,relearn,1,115,D,49.34295705995538,43.735454627298324,2.467147852997769,0.6869949147926507,A,477,Incorrect
2,relearn,1,116,A,23.524902215226682,59.474892906645316,1.176245110761334,0.9342294331427831,C,997,Incorrect
2,relearn,1,117,A,32.79348364027953,64.97824044823777,1.6396741820139766,1.0206758141768746,B,494,Incorrect
2,relearn,1,118,A,23.906955100266078,36.40844787068391,1.1953477550133038,0.5719025617957375,D,405,Incorrect
2,relearn,1,119,B,72.77770863067347,67.38544025709083,3.638885431533674,1.0584880203529523,A,323,Incorrect
2,relearn,1,120,B,67.37372891589483,61.2527313806321,3.368686445794742,0.962155654588514,C,501,Incorrect
2,relearn,1,121,C,100.91082436578438,55.626797735713374,5.045541218289219,0.8737836955462124,C,303,Correct
2,relearn,1,122,C,73.6195523205592,68.27772865022516,3.6809776160279597,1.0725040536567234,C,808,Correct
2,relearn,1,123,A,30.037689319205086,32.20980150413831,1.5018844659602542,0.5059503788949319,D,1051,Incorrect
2,relearn,1,124,C,57.51512886685953,42.16156277514781,2.8757564433429765,0.6622722793913461,B,376,Incorrect
2,relearn,1,125,C,72.27216799481384,23.49384798935121,3.6136083997406923,0.3690405012395055,A,347,Incorrect
2,relearn,1,126,D,73.37760681946784,21.86674817343884,3.668880340973392,0.34348207709786743,D,486,Correct
2,relearn,1,127,C,86.8645149078219,69.03332675320848,4.343225745391095,1.0843729609037176,C,661,Correct
2,relearn,1,128,B,52.047962994737965,66.4194234629148,2.602398149736898,1.0433138640338135,D,1049,Incorrect
2,relearn,1,129,A,35.15452182236581,57.79563204003033,1.7577260911182904,0.9078516651326909,B,690,Incorrect
2,relearn,1,130,A,21.1579771273769,33.798512726088504,1.057898856368845,0.530905796412704,B,517,Incorrect
2,relearn,1,131,C,62.78666242623246,60.4502785457669,3.139333121311623,0.9495507549341899,D,1310,Incorrect
2,relearn,1,132,B,67.74097975491995,88.13136804279944,3.3870489877459975,1.3843642919703847,C,607,Incorrect
2,relearn,1,133,C,64.93755291430881,70.89999240823138,3.2468776457154407,1.113694476446359,C,446,Correct
2,relearn,1,134,A,8.045762040313122,38.93241520638588,0.40228810201565607,0.6115489479944471,B,1559,Incorrect
2,relearn,1,135,B,63.58961904779371,81.55366415238782,3.1794809523896856,1.2810419608723542,D,1020,Incorrect
2,relearn,1,136,A,5.828435005837999,60.1885925398812,0.2914217502919,0.9454402007660011,B,646,Incorrect
2,relearn,1,137,C,65.6739171003086,51.06517606828304,3.28369585501543,0.8021299099519364,A,303,Incorrect
2,relearn,1,138,A,31.826103741596214,44.56490209800724,1.5913051870798107,0.7000238451952395,D,820,Incorrect
2,relearn,1,139,B,55.09013465760812,61.185000718425876,2.7545067328804063,0.9610917438344647,D,841,Incorrect
2,relearn,1,140,A,22.177556947230084,42.76854286860647,1.1088778473615042,0.6718067004037711,B,739,Incorrect
2,relearn,1,141,B,33.99818693404417,61.788102141050274,1.6999093467022084,0.9705652388278965,A,261,Incorrect
2,relearn,1,142,A,3.853858588279337,49.478705713770005,0.19269292941396685,0.7772096918975558,C,535,Incorrect
2,relearn,1,143,A,20.283604280315437,24.049347957577346,1.0141802140157719,0.3777662743357484,D,246,Incorrect
2,relearn,1,144,C,71.36657022649776,38.105161602754464,3.5683285113248875,0.5985544787753264,C,781,Correct
2,relearn,1,145,D,47.503702430768826,35.80449890612499,2.3751851215384416,0.5624157536447303,D,910,Correct
2,relearn,1,146,B,52.13879489376076,69.440672764841,2.606939744688038,1.0907715370917865,D,941,Incorrect
2,relearn,1,147,A,27.390968997114072,36.62691678103931,1.3695484498557036,0.5753342634147891,D,583,Incorrect
2,relearn,1,148,C,91.89112773688723,42.45876709895454,4.594556386844362,0.6669407539927779,C,712,Correct
2,relearn,1,149,D,66.58090371697119,28.939990144123996,3.3290451858485595,0.4545883021587048,D,676,Correct
2,relearn,1,150,C,63.78117424219073,70.47129666363327,3.1890587121095364,1.1069605394370858,A,364,Incorrect
2,relearn,1,151,B,35.19059671984981,72.69439500094282,1.7595298359924902,1.1418808864605827,B,542,Correct
2,relearn,1,152,A,7.653777665870916,33.01091034771957,0.38268888329354583,0.5185341671835354,D,2103,Incorrect
2,relearn,1,153,C,83.94966435963364,73.62672994811504,4.197483217981682,1.1565259695641892,C,606,Correct
2,relearn,1,154,D,53.9436291094155,47.56036430985969,2.697181455470775,0.747076455589547,D,508,Correct
2,relearn,1,155,B,45.21948484773138,69.26991502213752,2.260974242386569,1.0880892807416824,B,342,Correct
2,relearn,1,156,B,48.87995619073397,66.75109262983652,2.4439978095366985,1.048523711124931,A,351,Incorrect
2,relearn,1,157,C,75.17444026969773,33.2766895551848,3.758722013484886,0.5227090172117839,C,532,Correct
2,relearn,1,158,C,84.12647706502963,43.21348347780209,4.206323853251481,0.6787958111494349,D,317,Incorrect
2,relearn,1,159,C,64.85854387526197,45.64145020302981,3.2429271937630983,0.7169342232851142,C,582,Correct
2,relearn,1,160,B,57.45816344544233,89.86936226280478,2.872908172272117,1.4116646413381366,C,437,Incorrect
2,relearn,1,161,A,3.491539911999297,55.787795523278085,0.17457699559996484,0.8763126428794998,C,294,Incorrect
2,relearn,1,162,C,91.70725867222265,30.29970642656294,4.585362933611133,0.47594667557808784,C,549,Correct
2,relearn,1,163,C,67.09987721779973,33.48464492510117,3.3549938608899867,0.5259755725238029,D,703,Incorrect
2,relearn,1,164,A,43.27620119356442,34.29649101978996,2.163810059678221,0.5387280211584022,C,582,Incorrect
2,relearn,1,165,B,59.02716861295931,97.26710931550522,2.951358430647965,1.527868180307533,B,404,Correct
2,relearn,1,166,C,63.28924553582593,27.57115110263695,3.164462276791296,0.43308662877529186,C,720,Correct
2,relearn,1,167,A,12.94336667269058,69.62098608805611,0.6471683336345291,1.0936038921495714,C,2291,Incorrect
2,relearn,1,168,C,67.43195878813799,60.85548725908069,3.3715979394068993,0.9559157585187757,C,582,Correct
2,relearn,1,169,D,35.3049764252978,14.037867861071414,1.7652488212648902,0.22050631272203106,D,750,Correct
2,relearn,1,170,C,85.29572349887765,37.00890902368292,4.2647861749438825,0.5813345835308763,C,886,Correct
2,relearn,1,171,A,39.84897702471635,59.12676137851844,1.9924488512358176,0.9287609958865511,D,884,Incorrect
2,relearn,1,172,B,69.57591127202983,66.93588467489008,3.4787955636014916,1.0514264177808414,C,550,Incorrect
2,relearn,1,173,B,56.40153117050308,98.22955468341021,2.8200765585251535,1.5429862367939924,B,876,Correct
2,relearn,1,174,C,65.7928269245913,31.823739469373013,3.2896413462295646,0.49988613063368903,D,1261,Incorrect
2,relearn,1,175,B,40.44781857983094,69.80825075011482,2.022390928991547,1.0965454385825746,A,766,Incorrect
2,relearn,1,176,D,52.979985624326815,43.96278071030467,2.6489992812163403,0.6905657445543611,B,263,Incorrect
2,relearn,1,177,D,24.010569034883545,25.955757956414683,1.2005284517441772,0.407712092571136,C,397,Incorrect
2,relearn,1,178,C,90.68540101680047,54.55419407430263,4.534270050840024,0.8569352766317048,D,609,Incorrect
2,relearn,1,179,C,73.44996204016297,41.56628704695757,3.6724981020081486,0.6529217101186323,D,542,Incorrect
2,relearn,1,180,B,66.17418877166594,70.91503421803553,3.308709438583297,1.1139307526422462,C,407,Incorrect
2,relearn,1,181,C,74.10175919210823,47.71378877475226,3.705087959605412,0.7494864414484842,C,551,Correct
2,relearn,1,182,B,44.74107320981576,75.50754018107106,2.2370536604907882,1.1860696676174447,B,1707,Correct
2,relearn,1,183,B,39.61407613439899,53.89098257889064,1.9807038067199496,0.8465175748228919,B,767,Correct
2,relearn,1,184,A,29.440050636667134,44.9452119386918,1.4720025318333567,0.705997738203152,B,1150,Incorrect
2,relearn,1,185,A,10.205634097875482,33.07101555373075,0.5102817048937741,0.5194782975517717,A,1020,Correct
2,relearn,1,186,A,28.00580852132495,54.15759065924883,1.4002904260662477,0.8507054447560967,A,1292,Correct
2,relearn,1,187,C,55.51469103579757,34.18377742262528,2.7757345517898786,0.5369575201143412,D,1535,Incorrect
2,relearn,1,188,D,48.52595698865008,31.595439274285496,2.426297849432504,0.49629999955518866,D,861,Correct
2,relearn,1,189,D,40.62347044562978,44.02310924303549,2.031173522281489,0.6915133829305061,A,1307,Incorrect
2,relearn,1,190,C,65.39680563756151,40.579983492574925,3.2698402818780754,0.6374288901153423,C,637,Correct
2,relearn,1,191,B,53.69331402117158,63.723410935727415,2.684665701058579,1.0009649982868236,D,1742,Incorrect
2,relearn,1,192,B,67.77371800576503,55.84437283493273,3.3886859002882517,0.8772013572127703,C,632,Incorrect
2,relearn,1,193,D,70.74821465264924,16.529753102584312,3.537410732632462,0.2596487545636598,C,613,Incorrect
2,relearn,1,194,D,46.287389072820446,26.99679333854914,2.314369453641022,0.42406463811433925,D,838,Correct
2,relearn,1,195,A,14.198203883700396,48.12998236888716,0.7099101941850198,0.756023995137511,A,1066,Correct
2,relearn,1,196,C,73.17930017746903,39.060143949247376,3.6589650088734516,0.6135553063955768,C,719,Correct
2,relearn,1,197,C,88.95572066103111,66.5108351500584,4.447786033051556,1.0447497554577263,C,844,Correct
2,relearn,1,198,D,50.29109540875488,40.09887419879442,2.514554770437744,0.6298716430007693,D,728,Correct
2,relearn,1,199,A,32.03126388650952,48.5285648861416,1.601563194325476,0.7622849146777904,B,1278,Incorrect
2,relearn,1,200,C,58.350824927598964,47.431349269898554,2.9175412463799484,0.7450498920808244,D,1341,Incorrect
2,relearn,1,201,B,53.72319267989186,90.75470758986951,2.6861596339945932,1.4255716132151195,D,797,Incorrect
2,relearn,1,202,A,37.96649570192106,43.275294914629654,1.8983247850960532,0.6797667429286612,D,1190,Incorrect
2,relearn,1,203,C,99.01990781771443,54.629894433747495,4.950995390885721,0.8581243750972354,C,716,Correct
2,relearn,1,204,C,56.14129470776979,43.382244449096284,2.8070647353884897,0.6814467022875873,A,518,Incorrect
2,relearn,1,205,A,33.01932465697985,66.68684536308811,1.6509662328489925,1.047514517418781,A,1117,Correct
2,relearn,1,206,D,44.76230078196423,32.28854119679573,2.2381150390982114,0.5071872190949243,D,1582,Correct
2,relearn,1,207,C,74.55117596413105,48.06538717662347,3.7275587982065526,0.7550093362301465,C,598,Correct
2,relearn,1,208,B,58.47654743088818,89.23595306304713,2.923827371544409,1.4017150728947623,B,2613,Correct
2,relearn,1,209,A,25.69956914745937,43.014043547030504,1.2849784573729688,0.6756630160427123,A,940,Correct
2,relearn,1,210,A,10.850248614499444,68.99743649339807,0.5425124307249721,1.0838091980209383,A,606,Correct
2,relearn,1,211,A,21.08719427464258,36.325291403859296,1.054359713732129,0.5705963430693641,A,467,Correct
2,relearn,1,212,D,40.66428892616022,31.074643565440446,2.033214446308011,0.4881193596905452,D,2880,Correct
2,relearn,1,213,B,39.01153288782275,95.22898952897205,1.9505766443911374,1.4958534695649894,B,924,Correct
2,relearn,1,214,C,56.69781703732859,38.79622003266106,2.8348908518664295,0.6094095992083057,C,780,Correct
2,relearn,1,215,C,98.8776672206678,47.16745528428018,4.94388336103339,0.7409046550480983,C,581,Correct
2,relearn,1,216,B,53.5547173411975,65.93047122166726,2.6777358670598748,1.0356334201885156,D,3910,Incorrect
2,relearn,1,217,A,35.84886469013581,33.913324044467814,1.7924432345067907,0.5327092483845508,A,677,Correct
2,relearn,1,218,A,21.41930947846877,60.428860279001626,1.0709654739234384,0.9492143175865777,A,620,Correct
2,relearn,1,219,C,68.31140006709093,49.51705675095745,3.415570003354546,0.777812108580984,C,599,Correct
2,relearn,1,220,A,17.51468554785403,48.875944185109944,0.8757342773927015,0.7677415359460309,A,1621,Correct
2,relearn,1,221,B,45.78832902621274,53.36242391823946,2.2894164513106374,0.8382149947964267,B,6333,Correct
2,relearn,1,222,A,30.582470961475284,46.345408808815,1.5291235480737644,0.7279919792069445,A,932,Correct
2,relearn,1,223,C,65.36876610543013,43.48051129149522,3.2684383052715065,0.682990274238447,C,696,Correct
2,relearn,1,224,C,64.13965273769433,43.039883333002805,3.206982636884717,0.676068906451617,C,636,Correct
2,relearn,1,225,C,72.7937612074801,66.54876683792405,3.639688060374005,1.0453455850174111,C,757,Correct
2,relearn,1,226,D,35.93762681976106,24.251325328111434,1.7968813409880529,0.38093892745305474,D,1471,Correct
2,relearn,1,227,B,48.59375868215786,85.67082833997554,2.429687934107893,1.345714224699097,C,1061,Incorrect
2,relearn,1,228,C,87.35623700043183,48.24086700725672,4.367811850021592,0.7577657669639997,C,535,Correct
2,relearn,1,229,A,1.2280796360276582,38.86516810996432,0.061403981801382915,0.610492633073981,A,796,Correct
2,relearn,1,230,D,47.70708981845304,-0.3843909425768217,2.385354490922652,-0.006037998806528996,D,1096,Correct
2,relearn,1,231,B,39.531542765159486,62.31787294416536,1.9765771382579742,0.9788868591436599,B,2302,Correct
2,relearn,1,232,A,20.262843755972177,63.29619515368433,1.0131421877986089,0.9942543084750028,A,795,Correct
2,relearn,1,233,D,68.16566735313774,25.532052739751837,3.4082833676568867,0.40105654659135764,C,535,Incorrect
2,relearn,1,234,B,71.2967450878621,89.94515736304824,3.5648372543931055,1.4128552279886513,C,597,Incorrect
2,relearn,1,235,B,60.99883394591335,57.53276286951279,3.0499416972956674,0.903722525857925,D,1461,Incorrect
2,relearn,1,236,A,33.508390664418044,71.70233299045495,1.6754195332209023,1.1262976128403117,A,1531,Correct
2,relearn,1,237,A,32.09401855538806,37.858800496914924,1.604700927769403,0.5946846475741476,A,726,Correct
2,relearn,1,238,D,66.19523015381094,44.201239424536425,3.309761507690547,0.6943114452784359,C,695,Incorrect
2,relearn,1,239,B,62.9005573497672,54.72460232849561,3.14502786748836,0.8596120432291234,D,1596,Incorrect
2,relearn,1,240,D,48.807606159606465,2.7535031543422264,2.4403803079803232,0.0432519264065893,D,789,Correct
2,relearn,1,241,B,29.658021732719856,91.63276160872762,1.4829010866359928,1.4393640534906176,A,910,Incorrect
2,relearn,1,242,B,41.91745974857349,81.94931296282653,2.095872987428675,1.287256797853733,B,1094,Correct
2,relearn,1,243,D,69.19321135501785,26.291719095754175,3.459660567750893,0.41298935780733903,C,725,Incorrect
2,relearn,1,244,B,56.471635322561596,94.03354116335802,2.82358176612808,1.477075410549195,B,1461,Correct
2,relearn,1,245,C,75.37426922590062,24.804659436470285,3.7687134612950306,0.3896306793020589,B,638,Incorrect
2,relearn,1,246,C,78.34374202163936,41.23906120992927,3.917187101081968,0.6477816586902679,C,485,Correct
2,relearn,1,247,D,60.112522491978496,3.204592806801312,3.005626124598925,0.050337626097968484,D,822,Correct
2,relearn,1,248,D,33.357171422162764,39.32366661995591,1.6678585711081382,0.6176947108273383,A,652,Incorrect
2,relearn,1,249,A,28.768247907176224,75.50422659408324,1.4384123953588113,1.1860176179147548,B,495,Incorrect
2,relearn,1,250,A,17.621309923573797,75.7508440983036,0.8810654961786898,1.1898914766122817,A,469,Correct
2,relearn,1,251,D,34.009052897330974,29.364508318772366,1.7004526448665487,0.4612566180526581,B,2333,Incorrect
2,relearn,1,252,A,6.839390258644652,57.13352636279846,0.34196951293223266,0.8974513334752321,A,584,Correct
2,relearn,1,253,D,36.422278043710236,10.04079357023017,1.8211139021855118,0.15772041658223365,D,933,Correct
2,relearn,1,254,D,51.218138499689566,34.06228108379077,2.560906924984478,0.5350490600867382,D,1451,Correct
2,relearn,1,255,B,42.50049000763746,62.27854626067434,2.125024500381873,0.9782691170439327,D,2086,Incorrect
2,relearn,1,256,C,58.06319371957112,50.097948400767606,2.9031596859785562,0.78693673327886,D,1789,Incorrect
2,relearn,1,257,C,73.33278334728553,54.00872957190761,3.666639167364276,0.8483671402641138,C,592,Correct
2,relearn,1,258,B,55.29836557614295,96.03806191793106,2.764918278807148,1.5085623489318696,B,763,Correct
2,relearn,1,259,D,56.49189322733642,44.429088396025875,2.8245946613668207,0.6978904885532321,B,3391,Incorrect
2,relearn,1,260,A,14.407681861700047,58.1119274590926,0.7203840930850024,0.9128200219571414,A,461,Correct
2,relearn,1,261,D,56.040123761195915,14.064969489749815,2.8020061880597957,0.220932024109813,D,1061,Correct
2,relearn,1,262,A,2.0625237760959685,39.26030445539956,0.10312618880479843,0.6166994202739094,A,632,Correct
2,relearn,1,263,C,61.809591779284936,36.55902353717542,3.090479588964247,0.5742677988340331,B,2999,Incorrect
2,relearn,1,264,C,89.64682206656616,67.9037081485606,4.4823411033283085,1.0666289533551168,C,460,Correct
2,relearn,1,265,D,59.8291858980395,20.798336994878127,2.9914592949019747,0.3266995135499697,D,828,Correct
2,relearn,1,266,A,17.50075038736908,25.826414027861738,0.8750375193684541,0.405680362892494,A,625,Correct
2,relearn,1,267,B,47.444359441162106,56.005537764403456,2.372217972058105,0.8797329300049782,D,1125,Incorrect
2,relearn,1,268,B,45.50215006854681,89.33618259124167,2.275107503427341,1.403289474642006,A,853,Incorrect
2,relearn,1,269,B,56.852954767981814,81.78172183998925,2.8426477383990907,1.2846242826521708,B,597,Correct
2,relearn,1,270,C,95.15821903093197,37.27794161090643,4.757910951546599,0.5855605375288645,C,531,Correct
2,relearn,1,271,A,38.52691934102751,35.511496277019326,1.9263459670513754,0.557813279109326,B,917,Incorrect
2,relearn,1,272,A,38.17706740620076,31.92382482146354,1.908853370310038,0.5014582676679867,D,1053,Incorrect
2,relearn,1,273,D,61.12325481492954,28.71168263990701,3.0561627407464766,0.45100205626866735,C,488,Incorrect
2,relearn,1,274,C,57.16732001234686,66.25652953250425,2.8583660006173432,1.0407551321583524,C,599,Correct
2,relearn,1,275,C,71.62007320006485,34.50397671911003,3.581003660003242,0.5419871989019466,C,694,Correct
2,relearn,1,276,B,42.379196115173855,57.111822678247414,2.1189598057586925,0.8971104127955252,A,859,Incorrect
2,relearn,1,277,C,98.59232343023348,55.152043975285004,4.9296161715116735,0.8663262809160829,C,639,Correct
2,relearn,1,278,C,65.64572745423143,27.971153213158956,3.2822863727115714,0.4393698472344736,D,334,Incorrect
2,relearn,1,279,D,55.41281713002406,20.825139292433573,2.770640856501203,0.32712052305546724,C,565,Incorrect
2,relearn,1,280,A,13.291579336955937,33.372846532267985,0.6645789668477968,0.5242194474757635,A,639,Correct
2,relearn,1,281,D,62.65455666011875,33.54465041708716,3.1327278330059376,0.5269181365877941,B,678,Incorrect
2,relearn,1,282,D,59.38052900555214,13.159245499777423,2.9690264502776067,0.20670494494442648,D,1132,Correct
2,relearn,1,283,C,95.17787544731341,50.01857966930331,4.758893772365671,0.7856900121603952,C,695,Correct
2,relearn,1,284,D,38.69389560833596,28.29259940394553,1.934694780416798,0.4444191121919712,D,709,Correct
2,relearn,1,285,B,31.378285722462365,66.57485627537852,1.5689142861231182,1.0457553969426274,D,743,Incorrect
2,relearn,1,286,D,40.111835610192394,39.05223114135077,2.00559178050962,0.6134310122997906,A,574,Incorrect
2,relearn,1,287,D,50.59703617889116,30.084083880252166,2.529851808944558,0.47255968454089664,B,597,Incorrect
2,relearn,1,288,A,14.890685579321184,45.32276874394017,0.7445342789660592,0.7119283866315578,A,675,Correct
2,relearn,1,289,C,94.31161655348372,38.14217667420796,4.715580827674185,0.5991359101580784,C,511,Correct
2,relearn,1,290,A,10.955489208578832,65.68118566759458,0.5477744604289416,1.0317176518619116,A,629,Correct
2,relearn,1,291,D,51.00857603170571,4.870549596388965,2.5504288015852854,0.07650641415480153,D,774,Correct
2,relearn,1,292,B,66.06083243573363,63.86096335580529,3.3030416217866816,1.0031256666488244,B,621,Correct
2,relearn,1,293,D,61.92558841370081,31.663226241361773,3.09627942068504,0.49736479474406853,D,2333,Correct
2,relearn,1,294,D,34.47877270591597,18.19743858825433,1.7239386352957984,0.2858446969150561,A,1232,Incorrect
2,relearn,1,295,B,47.420115447008754,69.21172137421071,2.3710057723504376,1.0871751770576201,D,1125,Incorrect
2,relearn,1,296,C,77.08876675673274,32.01339713615528,3.854438337836637,0.5028652662969897,C,484,Correct
2,relearn,1,297,D,45.156628144504296,20.261471913810787,2.257831407225215,0.3182664565767195,D,717,Correct
2,relearn,1,298,B,59.21291473000221,69.1889942897288,2.9606457365001106,1.0868181808493906,B,2048,Correct
2,relearn,1,299,C,81.44799714123586,27.6775302737397,4.072399857061793,0.4347576288874486,C,661,Correct
2,relearn,1,300,D,52.534510851685305,-0.08526923726156,2.6267255425842655,-0.0013394060467906096,D,669,Correct
2,relearn,1,301,B,42.117001816631294,78.39632478532042,2.1058500908315647,1.2314465900700102,B,831,Incorrect
2,relearn,1,302,B,48.180927185481785,93.30384674463237,2.409046359274089,1.465613397423025,B,2204,Correct
2,relearn,1,303,D,55.8570504970228,9.921921132474981,2.7928525248511398,0.1558531726964036,D,764,Incorrect
2,relearn,1,304,D,64.93012751445256,3.884263941072117,3.2465063757226282,0.0610138753093795,D,759,Incorrect
2,relearn,1,305,B,33.49386455705277,83.88489333999637,1.6746932278526385,1.3176608233204796,C,1141,Incorrect
2,relearn,1,306,A,21.99371247388472,63.687494958549905,1.099685623694236,1.0004008314365869,A,2134,Incorrect
2,relearn,1,307,D,41.37449252480611,10.565341576929429,2.0687246262403054,0.16595999740374145,D,1077,Correct
2,relearn,1,308,B,45.09698425864307,76.15626126681818,2.2548492129321533,1.1962597546035045,B,3063,Correct
2,relearn,1,309,C,94.49772599866895,39.24606254498972,4.7248862999334476,0.6164757088683261,C,549,Correct
2,relearn,1,310,D,50.434806875520316,31.01319790642831,2.5217403437760155,0.48715417353580764,D,779,Correct
2,relearn,1,311,A,42.61426861282172,36.67767303695223,2.130713430641086,0.5761315408182878,D,1729,Incorrect
2,relearn,1,312,C,81.55225761395438,44.15255777164256,4.077612880697719,0.693546755662956,C,515,Incorrect
2,relearn,1,313,B,60.722764268692,55.0023023377252,3.0361382134346,0.8639741447736109,C,536,Correct
2,relearn,1,314,D,28.358218588055507,40.727348349624734,1.4179109294027754,0.6397436918768672,C,1812,Incorrect
2,relearn,1,315,B,38.51643822967547,95.60803823066938,1.9258219114837738,1.501807552648015,B,971,Correct
2,relearn,1,316,D,44.127639803023214,17.867153931958192,2.2063819901511605,0.2806565976659892,D,864,Incorrect
2,relearn,1,317,A,12.667139482303353,61.310034096978946,0.6333569741151677,0.9630557635520438,A,787,Correct
2,relearn,1,318,C,64.36325428126513,51.4644876262397,3.2181627140632565,0.8084022812367873,C,911,Incorrect
2,relearn,1,319,A,44.337712362430096,31.68833934223003,2.2168856181215046,0.49775927041005136,D,926,Correct
2,relearn,1,320,B,70.07411665111107,64.58723030027816,3.5037058325555535,1.0145338411353297,C,413,Incorrect
2,relearn,1,321,A,16.55216815905517,34.66429975292534,0.8276084079527586,0.5445055472281236,A,723,Incorrect
2,relearn,1,322,D,75.92226472599293,19.338639625545223,3.7961132362996466,0.3037706408901667,C,1600,Correct
2,relearn,1,323,A,48.72105494944233,55.79426700887063,2.4360527474721168,0.8764142967374766,D,1103,Incorrect
2,relearn,1,324,D,57.8506695485231,23.306577157855457,2.8925334774261553,0.3660988578972119,D,860,Incorrect
2,relearn,1,325,D,71.00353203669454,16.310686570259286,3.550176601834727,0.2562076655206614,C,651,Incorrect
2,relearn,1,326,C,77.10766034555263,49.59241411976596,3.8553830172776316,0.7789958193621973,C,574,Incorrect
2,relearn,1,327,C,55.71860857854341,51.032534341783595,2.7859304289271707,0.8016171749110808,C,1413,Correct
2,relearn,1,328,C,60.47989392174583,66.79148423733469,3.0239946960872914,1.0491581810118455,C,1455,Correct
2,relearn,1,329,A,36.63476051945588,45.20414835598532,1.831738025972794,0.710065101934733,D,908,Incorrect
2,relearn,1,330,A,27.378345018596672,42.27285874872016,1.3689172509298337,0.6640205124560914,A,575,Correct
2,relearn,1,331,C,71.61793138503654,66.04236283958552,3.5808965692518266,1.037391009612767,D,3550,Incorrect
2,relearn,1,332,D,28.182231631601734,13.29045907955945,1.4091115815800868,0.20876604303589869,A,814,Correct
2,relearn,1,333,C,88.85909916028284,32.80755442539089,4.442954958014142,0.5153398598252766,C,862,Correct
2,relearn,1,334,A,23.3684514508629,50.81917375885644,1.168422572543145,0.7982657147116328,A,1190,Correct
2,relearn,1,335,D,53.25503581901571,1.5486249504603293,2.6627517909507854,0.024325743837660136,D,803,Correct
2,relearn,1,336,D,46.30500600655423,30.000683597577794,2.3152503003277114,0.471249635964111,B,3079,Incorrect
2,relearn,1,337,B,56.39044437619374,56.55246834966314,2.819522218809687,0.888324095548355,D,1118,Incorrect
2,relearn,1,338,B,59.51547995147827,84.51928862772802,2.9757739975739135,1.3276258811975283,B,766,Correct
2,relearn,1,339,B,33.8723009855928,79.16968799162402,1.69361504927964,1.2435945509074104,A,884,Incorrect
2,relearn,1,340,C,84.55346895498144,54.19557536772739,4.227673447749072,0.8513021071616216,C,709,Incorrect
2,relearn,1,341,A,36.68975000789455,60.32674111250726,1.8344875003947276,0.9476102334703308,B,1661,Incorrect
2,relearn,1,342,A,11.735175691154003,51.44039523548148,0.5867587845577001,0.8080238388477201,A,639,Incorrect
2,relearn,1,343,D,62.99502967445062,39.887894287441284,3.149751483722531,0.6265575783029591,A,1340,Incorrect
2,relearn,1,344,C,58.17742242652676,69.81469530997933,2.908871121326338,1.0966466694922041,B,510,Incorrect
2,relearn,1,345,B,55.94610020506818,82.34423452282614,2.797305010253409,1.2934602112119282,B,447,Correct
2,relearn,1,346,A,47.911438024964376,49.89422822457845,2.395571901248219,0.7837367042343407,B,669,Incorrect
2,relearn,1,347,C,69.3152034401788,62.8879802619689,3.4657601720089404,0.987842083950507,C,597,Incorrect
2,relearn,1,348,C,76.68224174064112,61.07415067128928,3.834112087032056,0.9593505153657926,C,934,Correct
2,relearn,1,349,D,32.470562428227204,16.67934240922245,1.6235281214113602,0.2619984978976096,D,943,Correct
2,relearn,1,350,B,62.50481199072247,97.4406090190582,3.1252405995361237,1.5305935072779429,B,1103,Correct
2,relearn,1,351,B,46.54265394833147,81.95464901231244,2.3271326974165736,1.2873406163230539,B,860,Correct
2,relearn,1,352,C,92.44565574134904,65.72578145037511,4.622282787067451,1.0324181607797338,C,646,Correct
2,relearn,1,353,D,29.401807100050792,36.85156850248145,1.4700903550025395,0.5788630844032837,D,2636,Incorrect
2,relearn,1,354,B,56.34559654181351,79.23059628428103,2.817279827090675,1.2445512961311802,D,1591,Incorrect
2,relearn,1,355,B,32.6227360100135,90.98584943531542,1.631136800500675,1.4292023808330696,A,1292,Correct
2,relearn,1,356,A,8.836928243168074,40.55481937895273,0.4418464121584037,0.6370336131428943,A,565,Correct
2,relearn,1,357,B,44.70595225486307,79.61987976844652,2.2352976127431536,1.250666146801271,B,3038,Correct
2,relearn,1,358,D,54.55620200304089,33.250554682637734,2.7278101001520447,0.522298491593802,D,1428,Correct
2,relearn,1,359,D,61.153301671198896,9.798396189304178,3.057665083559945,0.15391284742640113,D,1046,Incorrect
2,relearn,1,360,C,70.12587256911948,42.6503184137591,3.506293628455974,0.6699496350096554,C,526,Correct
2,relearn,1,361,B,39.668813955288044,89.8861205874203,1.9834406977644021,1.4119278804856292,B,1215,Incorrect
2,relearn,1,362,D,32.873730264250916,34.071193285373504,1.643686513212546,0.5351890526218365,D,1005,Incorrect
2,relearn,1,363,B,56.37153336084528,92.22115278054065,2.8185766680422635,1.4486064804046423,C,864,Incorrect
2,relearn,1,364,D,59.26575132863147,32.839128272496154,2.9632875664315734,0.5158358206558339,C,598,Correct
2,relearn,1,365,C,52.62752811304125,47.25869304533139,2.6313764056520625,0.7423378144473407,C,636,Incorrect
2,relearn,1,366,A,35.13065576835709,48.75051415392045,1.7565327884178543,0.7657712856234086,A,575,Correct
2,relearn,1,367,A,12.299465186475972,29.19108190823317,0.6149732593237985,0.45853244236621615,A,770,Incorrect
2,relearn,1,368,A,19.761247756988258,71.02941101117973,0.9880623878494128,1.1157273791076612,A,726,Incorrect
2,relearn,1,369,B,47.38157692601046,88.532330591287,2.369078846300523,1.3906625969538509,B,1663,Incorrect
2,relearn,1,370,A,12.282250799131067,28.083188149465915,0.6141125399565532,0.44112968789871027,A,908,Incorrect
2,relearn,1,371,B,33.78491147646588,58.20628356813141,1.6892455738232939,0.9143021642520297,B,1269,Incorrect
2,relearn,1,372,B,41.62264755810319,50.961421359954905,2.0811323779051594,0.8005001348046414,D,2160,Incorrect
2,relearn,1,373,B,33.207392153650716,66.0542425211936,1.6603696076825358,1.0375776152151017,D,638,Incorrect
2,relearn,1,374,B,46.05069347654277,87.21906315140608,2.302534673827138,1.3700338402472076,D,885,Incorrect
2,relearn,1,375,D,53.31291547953449,5.070164818830115,2.6656457739767245,0.07964196273663056,D,511,Correct
2,relearn,1,376,A,39.63156515262281,59.79572363938529,1.9815782576311407,0.9392690305078917,C,1635,Incorrect
2,relearn,1,377,D,39.634887219148204,47.06194200292734,1.9817443609574101,0.7392472563003272,D,807,Incorrect
2,relearn,1,378,A,10.993810547718038,45.45431736555096,0.549690527385902,0.7139947475477693,A,588,Incorrect
2,relearn,1,379,B,52.80664341771435,67.23359529512902,2.6403321708857175,1.056102845268033,C,935,Incorrect
2,relearn,1,380,A,45.66121851101937,41.10201266856771,2.2830609255509686,0.6456289052366346,C,459,Incorrect
2,relearn,1,381,D,40.06936749493034,26.30735894609572,2.0034683747465167,0.41323502800202017,C,399,Incorrect
2,relearn,1,382,A,24.156313028934733,29.07782938074651,1.2078156514467366,0.4567534758244534,A,811,Correct
2,relearn,1,383,B,53.73492502057078,100.13642367282955,2.686746251028539,1.5729392648365819,B,911,Incorrect
2,relearn,1,384,C,77.84587061304302,43.955567255372316,3.892293530652151,0.6904524358692486,C,862,Correct
2,relearn,1,385,A,35.34357028028469,59.61870413273506,1.7671785140142344,0.9364884145997197,D,1861,Incorrect
2,relearn,1,386,A,12.594050223940389,66.39726765706223,0.6297025111970194,1.0429658414493093,A,710,Correct
2,relearn,1,387,D,34.480808573621935,6.561840965993177,1.7240404286810969,0.10307315686394358,D,924,Incorrect
2,relearn,1,388,B,44.07929221708062,100.53678295408142,2.203964610854031,1.5792280937204686,B,846,Incorrect
2,relearn,1,389,B,63.176823095390006,97.65361766881432,3.1588411547695,1.5339394393240673,B,727,Incorrect
2,relearn,1,390,A,44.44806173563225,49.54905017944056,2.2224030867816125,0.7783146601804124,C,765,Incorrect
2,relearn,1,391,C,67.96964375302804,36.00604947374771,3.398482187651402,0.5655817025575822,C,648,Correct
2,relearn,1,392,C,61.313621975785644,46.677882114351576,3.065681098789282,0.7332144576778865,C,716,Correct
2,relearn,1,393,D,39.27029037111455,23.553506053830898,1.9635145185557275,0.3699776079249893,D,872,Correct
2,relearn,1,394,D,40.45400044188534,16.247575796974782,2.0227000220942672,0.2552163238120965,D,646,Incorrect
2,relearn,1,395,A,7.6870589021109765,63.962413100702165,0.38435294510554885,1.0047192355152075,A,740,Incorrect
2,relearn,1,396,A,35.415935990449924,70.39326158144114,1.7707967995224962,1.1057347672324005,B,700,Incorrect
2,relearn,1,397,A,11.610133779020336,57.05123900060116,0.5805066889510168,0.8961587666124202,A,645,Correct
2,relearn,1,398,B,44.15127108258785,96.30069659780841,2.207563554129392,1.5126878048362724,B,815,Incorrect
2,relearn,1,399,D,36.93455315662479,48.36426311219819,1.8467276578312393,0.7597040684478281,C,1245,Incorrect
2,relearn,1,400,C,92.33368728652395,66.47798534417724,4.616684364326198,1.0442337519135858,C,564,Correct
2,relearn,1,401,D,42.65213036338979,-0.14827823131894036,2.1326065181694895,-0.0023291490109943547,D,639,Correct
2,relearn,1,402,B,45.14519595161009,83.85762123592276,2.2572597975805047,1.3172324341114519,B,743,Correct
2,relearn,1,403,D,65.34380746720599,21.30273382370837,3.2671903733602994,0.33462256040970506,C,1163,Incorrect
2,relearn,1,404,A,33.78142758739199,68.99103915868172,1.6890713793695995,1.083708708922201,C,670,Correct
2,relearn,1,405,B,47.1626271775486,55.25612024521055,2.3581313588774298,0.8679611071411386,D,551,Incorrect
2,relearn,1,406,D,47.297948264748065,-0.6902607287583571,2.3648974132374034,-0.010842590172643957,D,661,Correct
2,relearn,1,407,C,68.21227079415993,55.12453911028592,3.410613539707997,0.8658942355069874,C,980,Correct
2,relearn,1,408,C,59.662634526414365,49.14333726546078,2.9831317263207184,0.7719417366302855,C,653,Correct
2,relearn,1,409,B,71.67369961887019,74.14776581382644,3.583684980943509,1.1647103818040678,C,790,Incorrect
2,relearn,1,410,C,67.03859652954738,36.35782499257788,3.3519298264773685,0.5711073794859303,C,767,Incorrect
2,relearn,1,411,C,51.38581476412928,62.194100463714776,2.569290738206464,0.9769426455671594,C,684,Incorrect
2,relearn,1,412,A,9.6131431917742,47.04894406892502,0.48065715958870997,0.7390430852304595,A,806,Incorrect
2,relearn,1,413,D,48.36349291535172,29.922692451013717,2.418174645767586,0.4700245538986572,B,741,Incorrect
2,relearn,1,414,A,39.59542233583112,36.56555305357739,1.979771116791556,0.5743703642378327,B,429,Incorrect
2,relearn,1,415,C,83.65995767245515,42.61102935331267,4.1829978836227575,0.6693324838913306,C,966,Correct
2,relearn,1,416,A,35.046834808803375,46.14770899380772,1.7523417404401687,0.7248865177747297,A,892,Correct
2,relearn,1,417,D,56.577703612007866,34.52961394986656,2.8288851806003934,0.5423899075809622,A,1159,Incorrect
2,relearn,1,418,D,33.41173131516378,36.06520584793306,1.6705865657581886,0.5665109287103506,A,644,Incorrect
2,relearn,1,419,B,26.95465080298324,63.921326892056214,1.347732540149162,1.0040738548589776,A,853,Incorrect
2,relearn,1,420,B,37.00971842576719,86.08326877039194,1.8504859212883593,1.352192823830295,B,764,Correct
2,relearn,1,421,C,75.81282339337903,23.34009606061087,3.790641169668952,0.36662537159047587,C,646,Incorrect
2,relearn,1,422,D,25.028151175648038,24.03365290582277,1.2514075587824018,0.3775197370392989,C,685,Incorrect
2,relearn,1,423,A,42.374771127097084,56.33411849756807,2.118738556354854,0.8848942640920836,B,287,Incorrect
2,relearn,1,424,C,92.18165656024428,37.174865445917895,4.609082828012214,0.5839414209154236,C,622,Incorrect
2,relearn,1,425,C,59.99727939185324,39.576070859960694,2.9998639695926617,0.621659467358008,D,557,Incorrect
2,relearn,1,426,C,59.75103144784248,58.19692283884606,2.9875515723921238,0.9141551262602543,C,571,Correct
2,relearn,1,427,B,35.84689860640031,75.45797320580027,1.7923449303200156,1.1852910713905878,B,1798,Incorrect
2,relearn,1,428,A,16.642926978638343,59.97105293548563,0.8321463489319172,0.9420230966508312,A,566,Correct
2,relearn,1,429,D,45.85786605209809,25.965085608149902,2.292893302604904,0.40785861098196896,D,661,Correct
2,relearn,1,430,C,88.9485249519138,61.63408257450159,4.44742624759569,0.9681459051340044,C,662,Correct
2,relearn,1,431,D,30.712453335908705,23.265907730721377,1.5356226667954354,0.36546002402966127,D,925,Incorrect
2,relearn,1,432,C,85.3197470790423,31.034078606716015,4.265987353952116,0.4874821668089361,C,651,Incorrect
2,relearn,1,433,D,41.98012343380882,20.489040779376175,2.099006171690441,0.3218410999579494,B,800,Incorrect
2,relearn,1,434,D,69.42616516121723,17.953551956848376,3.471308258060861,0.28201373466738755,D,254,Correct
2,relearn,1,435,A,21.163810514873383,39.679071972396585,1.058190525743669,0.6232774050487089,A,772,Correct
2,relearn,1,436,A,48.50360514429916,54.89946199470609,2.425180257214958,0.8623587324430035,B,3276,Incorrect
2,relearn,1,437,D,47.71359531955025,15.914715839178562,2.3856797659775126,0.24998777182166243,D,936,Correct
2,relearn,1,438,C,74.15348752316606,40.939400305358326,3.707674376158303,0.6430745962084272,C,539,Correct
2,relearn,1,439,C,61.995677699678,48.77247846102334,3.0997838849839003,0.7661163001525867,D,639,Incorrect
2,relearn,1,440,D,38.030159247219075,3.6627661882216813,1.9015079623609537,0.05753459674367162,D,864,Correct
2,relearn,1,441,C,63.51918431551984,31.60343949170855,3.175959215775992,0.4964256666766056,C,1100,Correct
2,relearn,1,442,A,32.18680318575556,38.52691467720116,1.609340159287778,0.6051793605768798,C,1023,Incorrect
2,relearn,1,443,B,36.50513991997265,79.16393505047256,1.8252569959986322,1.2435041839191205,D,1430,Incorrect
2,relearn,1,444,B,25.85407997044147,75.91717949981052,1.2927039985220736,1.1925042669893116,B,570,Incorrect
2,relearn,1,445,D,67.64100100374492,7.7923392642073,3.382050050187246,0.12240177893356473,D,840,Incorrect
2,relearn,1,446,A,-0.7017247264705553,44.651072979118204,-0.03508623632352777,0.7013774142304973,A,660,Correct
2,relearn,1,447,B,74.8034120312143,70.98709298880297,3.7401706015607146,1.1150626491665947,C,757,Incorrect
2,relearn,1,448,C,85.47206399341789,43.020303059529795,4.2736031996708945,0.6757613402351266,C,712,Correct
2,relearn,1,449,C,85.33575410851743,58.70141736040649,4.266787705425872,0.9220797076738068,C,572,Incorrect
2,relearn,1,450,A,45.37481343294752,40.062160727433096,2.268740671647376,0.6292949491411867,A,1078,Incorrect
2,relearn,1,451,C,57.455704558977374,44.10395672159765,2.8727852279488686,0.6927833321540667,B,278,Incorrect
2,relearn,1,452,A,23.032131249539933,63.037464080905366,1.1516065624769967,0.9901901702875138,D,245,Incorrect
2,relearn,1,453,D,74.53546808890064,30.83851567631184,3.7267734044450322,0.4844102714815747,C,292,Correct
2,relearn,1,454,B,60.95676495068239,71.93919101572459,3.04783824753412,1.1300181700009662,C,419,Correct
2,relearn,1,455,D,37.46205101473078,7.495921705897974,1.873102550736539,0.11774566281566672,D,569,Incorrect
2,relearn,1,456,C,84.92316204209864,46.436924913282766,4.246158102104932,0.7294295108143499,C,613,Incorrect
2,relearn,1,457,A,38.51494757586366,43.67595799492075,1.925747378793183,0.6860603438766971,B,255,Correct
2,relearn,1,458,B,46.25389122346149,92.06444692364687,2.3126945611730743,1.4461449505606823,B,660,Correct
2,relearn,1,459,D,30.67177881093515,39.44067350233939,1.5335889405467578,0.6195326506379153,A,837,Incorrect
2,relearn,1,460,A,34.84578766639078,44.637504348647305,1.7422893833195388,0.7011642786814641,B,454,Incorrect
2,relearn,1,461,D,52.188468581718254,43.90034573160398,2.609423429085913,0.6895850182022955,B,87,Incorrect
2,relearn,1,462,D,76.42669437185373,27.432218852219904,3.8213347185926865,0.43090428608900744,D,299,Incorrect
2,relearn,1,463,D,49.870977745270146,11.747595587208565,2.493548887263507,0.18453079997059152,C,265,Incorrect
2,relearn,1,464,A,9.686765117152396,47.983229473834974,0.4843382558576198,0.753718806052566,A,636,Correct
2,relearn,1,465,D,60.46097513307653,17.686729446665968,3.023048756653827,0.27782249647838037,D,542,Incorrect
2,relearn,1,466,A,29.096312594989676,73.81935262407292,1.4548156297494839,1.1595516794827094,A,647,Incorrect
2,relearn,1,467,D,25.10137232104668,18.978784882915043,1.2550686160523339,0.29811805581113465,B,671,Incorrect
2,relearn,1,468,A,13.849700570988727,53.9605751053478,0.6924850285494364,0.8476107316722047,B,221,Correct
2,relearn,1,469,D,61.76009060978639,32.245992796134914,3.0880045304893198,0.5065188703802341,C,1510,Incorrect
2,relearn,1,470,D,50.72566908708224,47.76240164804257,2.5362834543541117,0.7502500506764779,D,1270,Incorrect
2,relearn,1,471,D,62.96121480511424,21.179559218619094,3.148060740255712,0.3326877382374186,D,258,Incorrect
2,relearn,1,472,C,62.632323763234446,33.91129492060941,3.1316161881617224,0.5326773749815169,D,344,Incorrect
2,relearn,1,473,B,52.25478062765614,89.98612280405696,2.612739031382807,1.4134987116312714,B,740,Correct
2,relearn,1,474,D,60.39136795851841,40.2361372398661,3.0195683979259207,0.6320277658079703,C,1597,Correct
2,relearn,1,475,D,59.62082355336279,41.66809967560219,2.9810411776681396,0.6545209791495954,C,504,Incorrect
2,relearn,1,476,D,45.948638876715115,50.88409485059367,2.2974319438357558,0.7992854928359563,B,1196,Incorrect
2,relearn,1,477,C,71.69064442333593,65.826663940235,3.5845322211667963,1.034002819224832,C,630,Incorrect
2,relearn,1,478,D,29.724928278566395,24.280477249521937,1.4862464139283196,0.38139684476376107,B,1038,Incorrect
2,relearn,1,479,D,46.654393602642436,-0.41794469155605896,2.3327196801321217,-0.0065650598629968335,D,610,Correct
2,relearn,1,480,B,49.54573546746138,64.70243460520123,2.477286773373069,1.016343466125371,C,1585,Incorrect
2,relearn,1,481,A,38.754877087465964,45.8780531240927,1.937743854373298,0.7206507732782594,D,1843,Incorrect
2,relearn,1,482,D,57.40790056352674,-0.08026013110420749,2.8703950281763366,-0.0012607231912656594,D,591,Incorrect
2,relearn,1,483,B,52.59194627487611,79.73319643379412,2.6295973137438056,1.2524461208181976,C,950,Correct
2,relearn,1,484,C,62.34743507725239,66.80302540148428,3.1173717538626198,1.0493394691943767,C,478,Correct
2,relearn,1,485,A,25.53446201735658,51.28838999081023,1.2767231008678293,0.8056361460478886,A,867,Incorrect
2,relearn,1,486,D,54.71359488635831,16.67880367567195,2.735679744317915,0.26199003549078714,C,596,Incorrect
2,relearn,1,487,D,68.04946151984231,19.104419915903435,3.402473075992116,0.3000915262944838,C,424,Incorrect
2,relearn,1,488,C,66.75370000259912,70.20734968289685,3.3376850001299556,1.1028144699589921,C,495,Correct
2,relearn,1,489,C,71.95117102625635,25.35651369154339,3.5975585513128174,0.39829918567000866,C,597,Incorrect
2,relearn,1,490,C,83.92611381735237,51.29890562911794,4.196305690867619,0.8058013253081651,C,637,Correct
2,relearn,1,491,A,13.247143914203345,47.22347023916888,0.6623571957101673,0.741784535901946,A,1124,Incorrect
2,relearn,1,492,B,37.99714353707101,57.00450269442851,1.8998571768535504,0.8954246344317808,B,1246,Incorrect
2,relearn,1,493,B,67.02560470538194,86.64743364409544,3.351280235269097,1.3610547049434965,C,630,Incorrect
2,relearn,1,494,C,85.3648581101069,57.85295812767169,4.268242905505344,0.9087521412116565,B,676,Incorrect
2,relearn,1,495,A,47.735508773023696,37.24277045936401,2.386775438651185,0.5850080703723446,B,752,Incorrect
2,relearn,1,496,B,30.995166298028433,61.11007123707573,1.5497583149014216,0.9599147542937301,B,341,Correct
2,relearn,1,497,D,46.33823730826607,11.87125737079761,2.3169118654133034,0.18647327472485722,D,947,Correct
2,relearn,1,498,A,25.416578965060303,33.133477128176146,1.270828948253015,0.5204594416688181,B,1309,Correct
2,relearn,1,499,C,68.86183659574718,41.435455383137594,3.4430918297873587,0.6508666111490636,C,1168,Correct
2,relearn,1,500,A,26.278773229050497,40.567517958934886,1.3139386614525248,0.6372330819708091,B,918,Incorrect
2,relearn,1,501,C,91.20604607522037,61.82451665952445,4.560302303761018,0.971137236746509,C,663,Correct
2,relearn,1,502,A,16.14008735758629,28.697029035461327,0.8070043678793144,0.45077187798829144,D,532,Incorrect
2,relearn,1,503,D,35.888602313237044,9.0460352705049,1.7944301156618523,0.14209478974966175,D,733,Incorrect
2,relearn,1,504,B,32.814436111696125,76.30746431115608,1.6407218055848063,1.1986348464699663,B,1203,Incorrect
2,relearn,1,505,D,26.932222348150155,20.717893594577188,1.346611117407508,0.32543591157289364,C,729,Incorrect
2,relearn,1,506,A,19.006017517579856,32.3588404042937,0.9503008758789929,0.5082914764640684,C,603,Correct
2,relearn,1,507,B,25.875525801885214,80.55700421390897,1.2937762900942607,1.265386463168092,C,727,Incorrect
2,relearn,1,508,D,71.56651306752437,12.222488823275977,3.578325653376219,0.19199040547893584,C,741,Incorrect
2,relearn,1,509,D,43.01844711824857,18.824067905251514,2.1509223559124284,0.2956877672090678,D,526,Correct
2,relearn,1,510,D,62.63116643849529,19.637354646340526,3.1315583219247647,0.30846284546440395,D,581,Incorrect
2,relearn,1,511,C,100.41456024171842,45.61723491466247,5.020728012085921,0.7165538504249171,D,598,Incorrect
2,relearn,1,512,D,53.390362029723704,47.353215400595275,2.669518101486185,0.7438225681318259,D,612,Correct
2,relearn,1,513,A,1.511628843810378,54.24926081794874,0.0755814421905189,0.8521453962417217,A,606,Incorrect
2,relearn,1,514,B,40.43227971085366,85.1525282677135,2.0216139855426833,1.33757278620223,C,677,Incorrect
2,relearn,1,515,C,83.75837728337841,60.137241316340834,4.18791886416892,0.9446335776328648,B,716,Incorrect
2,relearn,1,516,D,49.55035462612171,12.43815227452504,2.477517731306085,0.1953780390493952,D,807,Correct
2,relearn,1,517,D,49.8482620520209,0.8909378947067061,2.492413102601045,0.013994819724076724,D,580,Correct
2,relearn,1,518,A,34.523726214461064,66.65173686715565,1.7261863107230533,1.0469630344542806,C,799,Incorrect
2,relearn,1,519,A,27.42894290687732,52.50211372680369,1.371447145343866,0.8247012739103116,C,726,Incorrect
2,relearn,1,520,A,13.482700037314107,30.247980683773015,0.6741350018657053,0.4751341695103363,B,1093,Incorrect
2,relearn,1,521,A,42.27835320674285,67.28820128359666,2.1139176603371426,1.056960594129093,C,878,Incorrect
2,relearn,1,522,A,38.016509831287195,48.77882244036833,1.9008254915643596,0.7662159511471104,C,1062,Incorrect
2,relearn,1,523,B,74.20305863464625,63.710224899987345,3.7101529317323125,1.0007578725217687,C,926,Correct
2,relearn,1,524,A,18.215532717596865,44.43672855975734,0.9107766358798431,0.698010499964487,A,861,Incorrect
2,relearn,1,525,A,3.601484425637988,35.026850518083734,0.1800742212818994,0.5502004813299985,A,701,Incorrect
2,relearn,1,526,B,39.23774883723926,99.31088412319275,1.961887441861963,1.559971719914648,B,1659,Incorrect
2,relearn,1,527,B,64.52490786430921,65.31929281821007,3.2262453932154607,1.0260330522768466,C,1166,Incorrect
2,relearn,1,528,C,58.7885397792729,35.47170810565482,2.939426988963645,0.5571882879750335,C,1175,Incorrect
2,relearn,1,529,C,72.39682650728494,51.003134582746526,3.6198413253642467,0.8011553645760401,C,605,Correct
2,relearn,1,530,C,54.34734568865854,63.44262856685821,2.717367284432927,0.9965544791503386,C,677,Incorrect
2,relearn,1,531,C,71.23774230819139,25.686429390958853,3.5618871154095695,0.4034814893579463,D,631,Correct
2,relearn,1,532,B,48.232286362319655,54.80116810706564,2.4116143181159826,0.8608147356664833,D,693,Incorrect
2,relearn,1,533,D,52.90606992208627,20.44050577707323,2.6453034961043134,0.3210787139245649,D,670,Incorrect
2,relearn,1,534,D,25.487674039938938,27.777513926817193,1.2743837019969468,0.4363281684373853,D,804,Correct
2,relearn,1,535,B,40.42295408065552,53.54629617779639,2.021147704032776,0.8411032534955418,C,1045,Incorrect
2,relearn,1,536,D,68.42090667674125,22.059057652674447,3.4210453338370628,0.3465028673337788,C,613,Incorrect
2,relearn,1,537,B,63.748744327718136,91.7954949588013,3.1874372163859066,1.4419202629760453,C,526,Incorrect
2,relearn,1,538,B,40.61322866743331,66.81600637869394,2.0306614333716655,1.0495433739075681,B,1654,Correct
2,relearn,1,539,D,51.370291554503304,-0.4212135326861173,2.5685145777251654,-0.006616406699396551,D,884,Correct
2,relearn,1,540,B,67.7039026653948,85.3199693728586,3.3851951332697405,1.3402029449313937,B,1071,Correct
2,relearn,1,541,B,60.450879315287814,93.85295909179759,3.022543965764391,1.4742388340022738,D,741,Incorrect
2,relearn,1,542,C,88.94059283193991,51.612103016297276,4.447029641596996,0.8107210183615957,C,916,Correct
2,relearn,1,543,B,44.25142434722823,51.44429391320699,2.2125712173614116,0.8080850791342259,C,661,Correct
2,relearn,1,544,D,41.86183766048147,24.735521322404338,2.0930918830240732,0.38854466034589574,C,743,Incorrect
2,relearn,1,545,B,44.73491414003764,75.11693177088361,2.236745707001882,1.1799340050580684,C,1052,Incorrect
2,relearn,1,546,B,67.99117411380476,79.45800236118423,3.3995587056902377,1.248123382434084,A,1406,Incorrect
2,relearn,1,547,C,86.79121229928313,57.54979266644071,4.339560614964157,0.9039900292825294,B,1032,Incorrect
2,relearn,1,548,B,51.920024428269535,49.154978762971346,2.596001221413477,0.7721246008455652,D,510,Incorrect
2,relearn,1,549,B,45.76572522314876,71.65241300780013,2.288286261157438,1.1255134715864332,D,266,Incorrect
2,relearn,1,550,A,49.96690568421867,55.449460900311294,2.4983452842109335,0.8709980950496621,D,416,Incorrect
2,relearn,1,551,A,25.095840233380383,26.592869137473414,1.2547920116690192,0.417719811600806,B,1268,Incorrect
2,relearn,1,552,D,54.51334580650536,27.61025776132283,2.7256672903252683,0.43370091473346195,C,1525,Incorrect
2,relearn,1,553,B,70.86066760681406,74.3073014155476,3.543033380340703,1.167216361175834,C,485,Correct
2,relearn,1,554,A,31.878422095885043,58.98447061570674,1.593921104794252,0.9265258978109364,B,1061,Incorrect
2,relearn,1,555,D,66.10529441074999,41.7876824576226,3.3052647205374996,0.6563993810970512,B,1727,Incorrect
2,relearn,1,556,C,96.00037437502185,34.542691734233586,4.800018718751093,0.5425953329374256,C,562,Correct
2,relearn,1,557,C,60.969751781869675,32.94423577098004,3.0484875890934835,0.5174868453812049,D,1919,Incorrect
2,relearn,1,558,D,30.880647330132355,9.620132218208711,1.5440323665066176,0.15111268351643484,D,1007,Incorrect
2,relearn,1,559,A,24.317949776643452,41.92800748849434,1.2158974888321725,0.6586036015275581,D,1238,Incorrect
2,relearn,1,560,A,46.992671286123695,58.4047415532794,2.3496335643061848,0.9174195349929655,C,5471,Incorrect
2,relearn,1,561,A,48.37496763787502,62.53357931042751,2.4187483818937507,0.9822751668215688,C,332,Correct
2,relearn,1,562,C,93.877665899762,55.6392940811487,4.6938832949881,0.873979987681294,C,542,Incorrect
2,relearn,1,563,A,15.283427099625312,49.68351544456974,0.7641713549812655,0.7804268356258766,A,742,Incorrect
2,relearn,1,564,B,69.19969824872823,72.00134352706058,3.4599849124364113,1.1309944593660426,B,237,Correct
2,relearn,1,565,D,52.496556091767246,34.174285180173534,2.6248278045883624,0.5368084163185786,B,471,Incorrect
2,relearn,1,566,C,60.137197391284744,60.88286298723181,3.0068598695642375,0.956345775451007,A,708,Incorrect
2,relearn,1,567,D,29.616955132139466,20.440263412603997,1.4808477566069735,0.3210749068723848,B,325,Incorrect
2,relearn,1,568,D,63.30791001463543,3.380668204744847,3.165395500731772,0.05310341198125503,B,1262,Incorrect
2,relearn,1,569,B,64.17222543633719,73.4184381853668,3.208611271816859,1.1532541302059232,B,645,Correct
2,relearn,1,570,B,54.877726213948165,64.66672753250013,2.743886310697408,1.0157825807389762,C,5533,Incorrect
2,relearn,1,571,B,67.47430684829214,60.34726318421585,3.373715342414607,0.9479325934189116,C,359,Incorrect
2,relearn,1,572,C,81.28762415102865,36.461333992733415,4.064381207551432,0.5727332950582754,C,494,Correct
2,relearn,1,573,D,56.29246822230868,27.513447412918794,2.814623411115434,0.43218022133677386,D,600,Incorrect
2,relearn,1,574,D,64.76776343253164,28.827460049702374,3.238388171626582,0.45282068356899113,C,443,Incorrect
2,relearn,1,575,C,85.10368028682672,49.97023617038217,4.255184014341336,0.7849306342550979,C,404,Incorrect
2,relearn,1,576,B,68.48274572430925,91.77731347348869,3.424137286215463,1.4416346688725976,C,489,Incorrect
2,relearn,1,577,C,72.3276844057381,52.792891207968516,3.6163842202869048,0.8292687959035955,C,436,Incorrect
2,relearn,1,578,D,33.88265861819088,43.56741678806861,1.6941329309095439,0.6843553825864048,B,1141,Incorrect
2,relearn,1,579,C,61.40204465719644,67.12384462062676,3.070102232859822,1.0543788857043188,C,711,Incorrect
2,relearn,1,580,B,29.744654600908895,64.90218970728478,1.4872327300454447,1.0194812119314847,D,1845,Incorrect
2,relearn,1,581,A,36.418296849874196,41.81064453011279,1.8209148424937098,0.6567600684882829,D,566,Incorrect
2,relearn,1,582,B,57.45315030553264,55.823728135908276,2.8726575152766323,0.8768770710388163,B,686,Incorrect
2,relearn,1,583,C,71.70705205370265,43.043553665127426,3.585352602685133,0.6761265598938117,A,372,Incorrect
2,relearn,1,584,C,79.08492878199138,57.23444959581403,3.954246439099569,0.8990366319123233,C,487,Correct
2,relearn,1,585,C,66.78413474670337,75.4433711861157,3.339206737335169,1.1850617034017448,D,709,Incorrect
2,relearn,1,586,A,9.151542855326678,42.46349873055341,0.45757714276633393,0.6670150782881304,A,636,Correct
2,relearn,1,587,A,50.72844582395131,44.24508523692262,2.5364222911975656,0.6950001736888516,C,576,Incorrect
2,relearn,1,588,A,20.232527933764736,34.14200001634169,1.0116263966882368,0.5363012821510083,D,343,Incorrect
2,relearn,1,589,A,6.276178319095884,44.211071116312645,0.3138089159547942,0.6944658811317185,A,1636,Incorrect
2,relearn,1,590,A,38.20545342545408,46.503702133905975,1.9102726712727043,0.7304784449430349,C,631,Incorrect
2,relearn,1,591,A,46.568781151066155,54.85266422904924,2.328439057553308,0.8616236348590437,B,277,Correct
2,relearn,1,592,A,4.399379790686037,33.83337680512257,0.21996898953430186,0.5314534400855419,A,621,Correct
2,relearn,1,593,A,18.05881411331836,71.89452616488826,0.902940705665918,1.1293165761646604,C,528,Correct
2,relearn,1,594,D,58.15496258725044,43.01753042659956,2.9077481293625222,0.675717787818903,D,541,Correct
2,relearn,1,595,B,30.258722228804604,62.900028483847336,1.5129361114402302,0.9880313369772177,B,356,Incorrect
2,relearn,1,596,C,81.12173503542108,54.21521092242714,4.056086751771054,0.8516105417335912,C,412,Incorrect
2,relearn,1,597,C,94.35226137414938,48.67076186808576,4.717613068707469,0.7645185396469825,D,430,Incorrect
2,relearn,1,598,D,30.097970535796748,30.5895711176837,1.5048985267898374,0.4804998594988881,B,336,Incorrect
2,relearn,1,599,D,60.704045772361795,3.42494627922461,3.0352022886180894,0.053798930348758656,A,293,Incorrect
2,relearn,1,600,B,39.09661896824393,98.73468444529071,1.9548309484121966,1.5509207965391583,C,278,Incorrect
2,relearn,1,601,B,38.91044944212119,72.68708683144712,1.9455224721060598,1.1417660900025883,C,1852,Incorrect
2,relearn,1,602,A,7.085939378489876,41.14150920388201,0.3542969689244938,0.6462493153625629,A,696,Correct
2,relearn,1,603,C,55.732336933251375,61.094154460688216,2.7866168466625685,0.959664734154891,C,637,Correct
2,relearn,1,604,D,62.13284682828913,9.872596371382729,3.1066423414144566,0.15507838116096614,D,503,Correct
2,relearn,1,605,C,59.97364309969281,40.13250218789544,2.9986821549846407,0.6303998702183431,C,876,Correct
2,relearn,1,606,C,77.59072728683425,24.317464106023856,3.8795363643417122,0.3819778329470902,C,638,Correct
2,relearn,1,607,B,68.88907143566081,73.69758930902803,3.4444535717830407,1.1576390258026006,C,637,Incorrect
2,relearn,1,608,B,58.739208488223774,79.6659886409688,2.936960424411189,1.2513904232771775,C,407,Incorrect
2,relearn,1,609,B,61.45592767366179,84.6193233182899,3.0727963836830896,1.3291972224423951,B,405,Correct
2,relearn,1,610,D,31.943960091284698,29.72263129418107,1.5971980045642349,0.46688200059578666,C,711,Incorrect
2,relearn,1,611,A,24.99265869635186,69.16942956008855,1.2496329348175932,1.0865108587948542,C,731,Incorrect
2,relearn,1,612,C,81.32679368941325,55.059091825251286,4.0663396844706625,0.8648661919576764,C,502,Correct
2,relearn,1,613,D,43.20786353532315,33.10911685640798,2.1603931767661577,0.5200767914146864,D,1094,Correct
2,relearn,1,614,C,89.49448075992117,65.88603017765763,4.474724037996059,1.0349353419016232,C,611,Correct
2,relearn,1,615,D,37.76596726966551,28.411914300946425,1.8882983634832755,0.44629330621138036,D,550,Correct
2,relearn,1,616,B,27.967110091138046,86.2752104147324,1.3983555045569023,1.3552078361291848,B,984,Correct
2,relearn,1,617,B,27.498787873532013,86.48644732791868,1.3749393936766006,1.3585259378023498,B,661,Correct
2,relearn,1,618,C,52.43480527969204,35.94776435579594,2.621740263984602,0.5646661620657278,D,1214,Incorrect
2,relearn,1,619,C,71.75457822368999,54.37023746286684,3.587728911184499,0.854045692936375,C,395,Correct
2,relearn,1,620,A,23.364965460612268,45.45579469810939,1.1682482730306134,0.7140179534333316,D,1657,Incorrect
2,relearn,1,621,A,20.749028877939676,64.83992862945637,1.0374514438969837,1.018503217207933,B,445,Incorrect
2,relearn,1,622,C,75.7475575940246,36.16109389141746,3.7873778797012303,0.5680171345752391,C,429,Correct
2,relearn,1,623,A,18.484153506320354,57.370034403148466,0.9242076753160177,0.9011663930856245,C,288,Incorrect
2,relearn,1,624,B,31.669514909290736,67.29098714709055,1.5834757454645367,1.0570043543705243,B,740,Correct
2,relearn,1,625,A,39.81038789020536,62.099917601042335,1.9905193945102682,0.9754632246198305,B,631,Incorrect
2,relearn,1,626,B,50.31041283554318,64.55946229272814,2.5155206417771594,1.0140976622927098,C,541,Incorrect
2,relearn,1,627,B,56.6337359482233,84.61647024786397,2.8316867974111646,1.3291524065169438,B,415,Correct
2,relearn,1,628,B,43.84542647894714,94.81131105579699,2.192271323947357,1.489292591450543,B,830,Correct
2,relearn,1,629,B,63.94026369022306,81.41898900703801,3.197013184511153,1.2789264886360938,C,685,Incorrect
2,relearn,1,630,C,84.65819322275318,46.466822473486225,4.2329096611376595,0.729899140591827,B,335,Incorrect
2,relearn,1,631,A,21.983656059520346,61.958263228004505,1.0991828029760173,0.9732381229314078,B,987,Incorrect
2,relearn,1,632,A,2.0677719698274224,42.12801569299405,0.10338859849137112,0.6617453230571281,A,655,Correct
2,relearn,1,633,B,60.26591341668168,71.34290977798736,3.013295670834084,1.1206518062212223,C,613,Incorrect
2,relearn,1,634,D,39.074031517523956,45.43883948398927,1.953701575876198,0.7137516215527325,D,836,Correct
2,relearn,1,635,A,-0.7332756218616154,43.73515726626694,-0.03666378109308077,0.6869902438564924,A,585,Correct
2,relearn,1,636,D,34.794472254249996,21.76786697624894,1.7397236127124998,0.34192885488451763,D,740,Correct
2,relearn,1,637,C,76.50958312239351,60.25186912228197,3.8254791561196755,0.9464341469980735,C,600,Correct
2,relearn,1,638,B,29.39380226885371,67.82576172734436,1.4696901134426854,1.0654045738337838,B,798,Correct
2,relearn,1,639,B,55.509772873457365,56.99848741883396,2.775488643672868,0.8953301467036952,B,958,Correct
2,relearn,1,640,C,70.94009311148133,73.94864129946271,3.547004655574067,1.161582541246694,C,404,Correct
2,relearn,1,641,C,80.81402292622882,40.949088923145354,4.040701146311441,0.6432267846607431,C,720,Correct
2,relearn,1,642,A,49.74818941605321,45.970346003069835,2.4874094708026604,0.7221005064311253,D,589,Incorrect
2,relearn,1,643,B,51.71035487235371,82.71886086717025,2.5855177436176855,1.2993448280680915,C,764,Incorrect
2,relearn,1,644,A,39.47325155898789,38.3279170083556,1.9736625779493946,0.6020535125042462,C,534,Incorrect
2,relearn,1,645,D,53.57360426045632,28.25652481038445,2.678680213022816,0.4438524538014076,C,427,Incorrect
2,relearn,1,646,C,57.090481108550115,57.49703875555897,2.8545240554275058,0.9031613727881583,C,665,Correct
2,relearn,1,647,B,36.531799605926594,84.99441724268388,1.82658998029633,1.3350891840288068,B,956,Correct
2,relearn,1,648,D,59.593386177047236,1.0952234908364034,2.979669308852362,0.017203730364253066,D,669,Correct
2,relearn,1,649,D,24.863791694722938,23.446405691766817,1.243189584736147,0.36829527937170276,B,1165,Incorrect
2,relearn,1,650,B,48.676740031592985,89.60310856799961,2.4338370015796493,1.407482338080181,B,784,Correct
2,relearn,1,651,B,53.2838176517356,74.70168012507091,2.66419088258678,1.173411247458687,C,917,Incorrect
2,relearn,1,652,A,8.863820504997786,58.07441276259488,0.44319102524988935,0.912230742482547,A,989,Correct
2,relearn,1,653,B,69.17895036269378,67.77682762490004,3.458947518134689,1.0646359187500385,C,788,Incorrect
2,relearn,1,654,C,85.62057289487022,62.3975341764901,4.281028644743511,0.9801381748548967,C,879,Correct
2,relearn,1,655,B,37.76600676687321,80.54147535352486,1.8883003383436605,1.2651425363995854,B,1244,Correct
2,relearn,1,656,C,101.50225512254065,53.32340182027337,5.075112756127032,0.8376020371149371,C,663,Correct
2,relearn,1,657,C,74.40759247064858,40.51350967663453,3.720379623532429,0.6363847218562702,C,1318,Correct
2,relearn,1,658,B,57.23548422425507,58.31165358442975,2.8617742112127535,0.9159573125975871,B,508,Correct
2,relearn,1,659,D,59.32642842422076,1.9254761649082042,2.9663214212110383,0.030245308871689316,D,670,Correct
2,relearn,1,660,B,31.56528120220093,85.78980405906293,1.5782640601100466,1.3475830909242996,B,2343,Correct
2,relearn,1,661,B,71.41122859222601,74.12121244561017,3.5705614296113004,1.1642932824714862,B,1260,Correct
2,relearn,1,662,A,21.005791446336755,24.537272950017623,1.0502895723168377,0.3854305821945146,D,1400,Incorrect
2,relearn,1,663,D,49.42397329675144,39.76067746108196,2.4711986648375723,0.6245592610674419,C,722,Incorrect
2,relearn,1,664,B,73.01066035999756,62.22736817358792,3.6505330179998783,0.9774652135318556,C,1440,Incorrect
2,relearn,1,665,D,32.376793702443955,24.060363355025608,1.6188396851221978,0.37793930379424756,D,814,Correct
2,relearn,1,666,B,62.383095771404115,51.22317475675223,3.1191547885702056,0.8046117475467948,B,871,Correct
2,relearn,1,667,C,93.78365486477395,42.56655021685219,4.689182743238698,0.6686338072496193,C,837,Correct
2,relearn,1,668,A,33.03651502079305,62.140769523430635,1.6518257510396523,0.976104925116131,B,909,Incorrect
2,relearn,1,669,C,62.19793250597573,62.79375320632172,3.109896625298786,0.9863619688215542,A,934,Incorrect
2,relearn,1,670,B,37.970797903538234,51.77800022143355,1.8985398951769117,0.8133269255661315,A,653,Incorrect
2,relearn,1,671,C,62.57545168229368,60.162747648816975,3.128772584114684,0.9450342301665,D,644,Incorrect
2,relearn,1,672,B,33.646267098240926,68.23603137398071,1.6823133549120461,1.0718490743731022,C,671,Incorrect
2,relearn,1,673,A,26.398054670756842,67.48954077478011,1.319902733537842,1.06012322746099,B,607,Incorrect
2,relearn,1,674,B,57.24955038407573,54.971043581581,2.862477519203787,0.8634831333802961,C,580,Incorrect
2,relearn,1,675,A,42.61474714999463,56.61213524550699,2.1307373574997315,0.8892613409565828,B,776,Incorrect
2,relearn,1,676,D,64.10531792407441,47.375311787544796,3.205265896203721,0.7441696573663833,B,891,Incorrect
2,relearn,1,677,B,58.48717611754476,79.65801177789015,2.9243588058772385,1.2512651230049445,B,485,Correct
2,relearn,1,678,B,67.12541296502782,81.70681751477382,3.3562706482513907,1.2834476882630763,B,1736,Correct
2,relearn,1,679,A,22.34392136689528,62.08171530472771,1.117196068344764,0.9751773036179281,B,1116,Incorrect
2,relearn,1,680,B,44.61824011639971,64.02754065342366,2.2309120058199854,1.0057422567210879,B,1439,Correct
2,relearn,1,681,C,81.97362763220849,70.85986905295265,4.098681381610424,1.1130642202554537,B,653,Incorrect
2,relearn,1,682,A,34.34082407112202,55.45283112233125,1.7170412035561011,0.8710510343733565,B,678,Incorrect
2,relearn,1,683,D,64.25465131438965,38.05972352684652,3.2127325657194827,0.5978407391479981,C,639,Incorrect
2,relearn,1,684,B,48.95635834562669,73.36042938508174,2.4478179172813346,1.152342930101828,B,790,Correct
2,relearn,1,685,B,28.014623751926468,62.83837903281315,1.4007311875963233,0.9870629496648835,B,1133,Correct
2,relearn,1,686,D,42.14466698616641,36.19410971565052,2.107233349308321,0.5685357459295531,B,932,Incorrect
2,relearn,1,687,B,42.21273047296345,91.81293664185743,2.1106365236481723,1.4421942362928222,B,934,Correct
2,relearn,1,688,A,45.86404547053618,61.053053681697925,2.293202273526809,0.9590191246282275,B,1414,Incorrect
2,relearn,1,689,B,31.56931188794615,77.22210902259698,1.5784655943973076,1.2130020520005038,B,847,Correct
2,relearn,1,690,C,54.87530889468723,51.463240215163566,2.743765444734361,0.8083826869494233,C,701,Correct
2,relearn,1,691,D,41.65400411602462,15.84719590312705,2.082700205801231,0.24892717114631102,D,734,Correct
2,relearn,1,692,C,50.26871678092496,55.04161825286894,2.513435839046248,0.8645917177245346,D,1188,Incorrect
2,relearn,1,693,A,29.91473436819354,76.12093920119258,1.495736718409677,1.1957049168941096,B,933,Incorrect
2,relearn,1,694,B,45.105876746783665,66.65255002330383,2.2552938373391833,1.0469758074811875,D,805,Incorrect
2,relearn,1,695,D,46.47620200453097,30.938772789389436,2.3238101002265483,0.48598510653114824,C,863,Incorrect
2,relearn,1,696,A,20.906020698765797,43.716147925217754,1.0453010349382899,0.6866916458255439,B,1236,Incorrect
2,relearn,1,697,B,39.0948126625988,92.91520710769602,1.95474063312994,1.45950866028156,C,703,Incorrect
2,relearn,1,698,C,72.15722435057323,24.996873550796796,3.6078612175286615,0.3926499715494811,C,622,Correct
2,relearn,1,699,C,82.63867922398308,58.20601996869168,4.131933961199154,0.9142980236417128,C,549,Correct
2,relearn,1,700,C,75.4282145500721,29.50024391528202,3.771410727503605,0.4633887478167849,C,452,Correct
2,relearn,1,701,C,64.47206921326558,67.01625660658581,3.223603460663279,1.052688897131692,C,437,Correct
2,relearn,1,702,C,72.17788475725146,67.63246165838422,3.6088942378625735,1.062368223450866,C,478,Correct
2,relearn,1,703,A,35.94414334487964,53.52694627067094,1.7972071672439822,0.840799305865177,B,808,Incorrect
2,relearn,1,704,C,72.60666120161787,70.47529210685332,3.630333060080893,1.1070232997124256,C,1020,Correct
2,relearn,1,705,A,40.17875553750941,46.37741898183534,2.0089377768754706,0.7284947938289487,B,3315,Incorrect
2,relearn,1,706,B,30.241009267662122,67.51442639816565,1.512050463383106,1.0605141299190302,C,327,Incorrect
2,relearn,1,707,C,71.2249097426232,65.7701005521709,3.56124548713116,1.0331143236028104,C,341,Correct
2,relearn,1,708,C,94.70331993103,49.149065534816266,4.7351659965515,0.7720317160749103,C,263,Correct
2,relearn,1,709,A,47.33496186380164,40.33607320963875,2.366748093190082,0.6335975563503058,C,542,Incorrect
2,relearn,1,710,C,60.870442522508355,34.110640994482566,3.043522126125418,0.5358086957875264,C,452,Correct
2,relearn,1,711,D,41.50556110200723,35.37938713437404,2.075278055100361,0.5557381135492937,C,398,Incorrect
2,relearn,1,712,D,35.00004495368678,18.047575667641237,1.7500022476843389,0.28349065566283804,D,491,Correct
2,relearn,1,713,D,38.899314230959654,2.072541554763472,1.9449657115479826,0.03255540661352246,D,367,Correct
2,relearn,1,714,B,57.253662750548294,64.8313671397814,2.8626831375274144,1.0183687336426,D,486,Incorrect
2,relearn,1,715,D,50.37194089192227,37.14794346314692,2.5185970445961137,0.5835185313989568,B,725,Incorrect
2,relearn,1,716,C,66.83871603739652,72.03954257409421,3.341935801869826,1.1315944885937175,B,1168,Incorrect
2,relearn,1,717,B,31.17326819180378,61.547938069029705,1.5586634095901888,0.9667927504063163,B,493,Correct
2,relearn,1,718,C,64.42671577480213,74.53052384017201,3.2213357887401064,1.1707227308224166,C,479,Correct
2,relearn,1,719,B,58.336901006665165,90.24868406414704,2.9168450503332584,1.4176230142603532,C,565,Incorrect
2,relearn,1,720,A,0.9881459536756658,58.50015501425881,0.04940729768378329,0.918918286133298,C,373,Incorrect
2,relearn,1,721,C,83.38909329895213,44.07234875746871,4.169454664947607,0.6922868354145548,C,527,Correct
2,relearn,1,722,B,37.75657123281805,81.15919912007799,1.8878285616409023,1.2748457186343412,C,447,Incorrect
2,relearn,1,723,C,73.72585199158664,65.17986093988391,3.686292599579332,1.023842861453718,C,484,Correct
2,relearn,1,724,A,34.62692589719617,62.03331793184559,1.7313462948598086,0.9744170794624304,C,440,Incorrect
2,relearn,1,725,C,73.96045238089005,50.57590959203208,3.6980226190445022,0.7944445301147477,C,418,Correct
2,relearn,1,726,B,43.97676974267532,54.48922476009806,2.198838487133766,0.8559147410306357,B,638,Correct
2,relearn,1,727,D,40.015479511028616,8.643901470638927,2.000773975551431,0.1357780867925663,D,686,Correct
2,relearn,1,728,C,83.16427949515926,29.286697227088013,4.158213974757963,0.46003436428264133,C,565,Correct
2,relearn,1,729,D,60.13672083061942,16.652944131795156,3.0068360415309705,0.26158383472544455,D,605,Correct
2,relearn,1,730,D,63.00314286203784,9.233885313330527,3.1501571431018918,0.14504553132224934,D,677,Correct
2,relearn,1,731,B,50.80755330324621,77.10795883729301,2.5403776651623104,1.2112089850827195,B,870,Correct
2,relearn,1,732,A,8.26814553774744,39.644572126924764,0.41340727688737205,0.6227354827432875,A,1236,Correct
2,relearn,1,733,A,13.597446971097238,25.87795988497628,0.6798723485548619,0.40649004332266425,A,613,Correct
2,relearn,1,734,B,58.71991110259579,68.98713837475296,2.9359955551297894,1.083647435551532,C,2518,Incorrect
2,relearn,1,735,B,29.706476354426666,69.22842610633187,1.4853238177213333,1.0874375743761804,B,566,Correct
2,relearn,1,736,B,28.410816219170616,86.54713197784542,1.420540810958531,1.3594791700543272,B,479,Correct
2,relearn,1,737,B,69.03596626931106,71.77509954443704,3.451798313465553,1.1274406271973976,C,1158,Incorrect
2,relearn,1,738,C,82.68839669709148,75.4596746697661,4.134419834854574,1.185317797924065,C,645,Correct
2,relearn,1,739,B,48.16635681539074,78.55560077183365,2.408317840769537,1.2339484914156265,C,916,Incorrect
2,relearn,1,740,B,49.076566903824386,95.7972599897191,2.4538283451912193,1.5047798410886648,D,1126,Incorrect
2,relearn,1,741,B,58.69392835261264,78.05394818252705,2.9346964176306316,1.2260685509695268,C,767,Incorrect
2,relearn,1,742,B,23.40421000363815,76.01000954268058,1.1702105001819074,1.1939624378928768,C,509,Incorrect
2,relearn,1,743,B,68.57097331643115,83.60795146236227,3.4285486658215576,1.3133106304792466,B,1126,Correct
2,relearn,1,744,A,0.7975403845636784,39.631465408490016,0.039877019228183916,0.6225296028915511,A,612,Correct
2,relearn,1,745,A,38.4194812269891,63.43534435350199,1.9209740613494548,0.9964400589945033,B,830,Incorrect
2,relearn,1,746,A,35.43710619713087,26.153765410585407,1.7718553098565437,0.41082238638802976,D,1485,Incorrect
2,relearn,1,747,A,21.95793937412558,32.58744530557659,1.097896968706279,0.511882393856293,D,432,Incorrect
2,relearn,1,748,A,21.76148723906802,24.958665798962382,1.088074361953401,0.3920498055871152,D,397,Incorrect
2,relearn,1,749,C,73.59993816685537,59.696409814553896,3.6799969083427686,0.9377090125954407,C,548,Correct
2,relearn,1,750,B,38.07418465094053,89.93938534527999,1.9037092325470266,1.4127645613455655,C,920,Incorrect
2,relearn,1,751,A,10.789825326302989,31.32823681991377,0.5394912663151494,0.4921027932168118,B,842,Incorrect
2,relearn,1,752,B,33.15837522816558,78.52737133735175,1.6579187614082793,1.2335050644957097,C,848,Incorrect
2,relearn,1,753,C,85.76141022002756,31.45479909479472,4.2880705110013775,0.4940908287817498,D,3190,Incorrect
2,relearn,1,754,C,86.20571858977863,38.339517923863546,4.310285929488931,0.6022357392589195,C,405,Correct
2,relearn,1,755,A,30.460331062629272,36.59254028850144,1.5230165531314637,0.5747942787327233,B,638,Incorrect
2,relearn,1,756,D,33.884090165709424,28.894760306147777,1.6942045082854713,0.4538778335251591,A,765,Incorrect
2,relearn,1,757,B,40.16604996755805,65.39904124253093,2.0083024983779025,1.0272857375967552,B,541,Correct
2,relearn,1,758,B,45.33610530509322,84.1199487354016,2.266805265254661,1.321353064837438,D,1469,Incorrect
2,relearn,1,759,B,66.4374470763904,62.19395635568608,3.3218723538195203,0.9769403819235382,C,676,Incorrect
2,relearn,1,760,D,36.4778326970075,24.610380050330615,1.823891634850375,0.38657894584085734,D,712,Correct
2,relearn,1,761,B,62.26515132119216,80.66819273197653,3.113257566059608,1.267133008325715,C,523,Incorrect
2,relearn,1,762,D,45.28386941276466,21.962547836873473,2.264193470638233,0.3449868946921805,D,728,Correct
2,relearn,1,763,D,36.745862277594156,30.78247322536113,1.8372931138797077,0.4835299587205952,D,805,Correct
2,relearn,1,764,C,71.27165537036673,49.26300724942729,3.5635827685183363,0.7738215083427076,D,503,Incorrect
2,relearn,1,765,C,74.2613760843267,56.92753876542551,3.7130688042163347,0.8942156878620448,C,3621,Correct
2,relearn,1,766,A,18.40142717684921,72.17580497140405,0.9200713588424605,1.1337348933254632,A,758,Correct
2,relearn,1,767,B,39.23020086428319,90.39468579270527,1.9615100432141594,1.4199164040496026,C,871,Incorrect
2,relearn,1,768,A,33.796517587299064,29.143187330132964,1.6898258793649532,0.4577801160926843,B,3276,Incorrect
2,relearn,1,769,D,52.49541148616427,10.660145705242758,2.6247705743082133,0.16744917716893717,C,454,Incorrect
2,relearn,1,770,D,30.614770950461324,27.488705465132227,1.5307385475230664,0.431791575729765,D,1039,Correct
2,relearn,1,771,C,73.80243070419013,51.23823346312778,3.690121535209506,0.8048482891534046,C,3892,Correct
2,relearn,1,772,B,25.640782517349752,84.72987945651403,1.2820391258674877,1.330933834200666,B,446,Correct
2,relearn,1,773,B,55.1305757757224,65.961488521646,2.75652878878612,1.0361206387972526,C,550,Incorrect
2,relearn,1,774,B,73.49955439128323,74.07617844994246,3.6749777195641617,1.1635858901217289,C,3566,Incorrect
2,relearn,1,775,A,9.201183089353203,67.61928473593728,0.4600591544676601,1.062161240837085,A,686,Correct
2,relearn,1,776,B,71.71711594053383,61.17365590116823,3.5858557970266918,0.9609135398617,C,596,Incorrect
2,relearn,1,777,C,69.05812570051229,44.19748784824972,3.4529062850256143,0.6942525156559275,C,591,Correct
2,relearn,1,778,C,76.7466177110743,67.56272691295007,3.8373308855537145,1.0612728326310865,A,1466,Incorrect
2,relearn,1,779,C,51.10840314358288,39.878772722798715,2.555420157179144,0.6264142971006074,B,567,Incorrect
2,relearn,1,780,B,33.74983797519803,63.49766349795537,1.6874918987599015,0.9974189658264668,C,1789,Incorrect
2,relearn,1,781,D,37.30749530084608,27.139555914338267,1.865374765042304,0.4263071474108725,B,791,Incorrect
2,relearn,1,782,B,25.945179801050703,72.0418311375323,1.2972589900525353,1.1316304372641395,B,503,Correct
2,relearn,1,783,B,53.90864570134233,68.12745093287049,2.695432285067117,1.0701434967925252,B,1262,Correct
2,relearn,1,784,A,25.349263168899647,42.73863578769874,1.2674631584449825,0.6713369210754209,D,1051,Incorrect
2,relearn,1,785,A,19.3438120666667,53.503444953022566,0.9671906033333351,0.840430148030808,B,750,Incorrect
2,relearn,1,786,D,45.86233307442115,16.497581496632904,2.2931166537210577,0.25914340415910414,C,644,Incorrect
2,relearn,1,787,B,44.85315611449691,67.4441042876836,2.242657805724846,1.0594095127906533,C,351,Incorrect
2,relearn,1,788,C,64.60742811352175,63.18667481864436,3.2303714056760873,0.9925339670751014,B,1742,Incorrect
2,relearn,1,789,A,42.59319942764536,57.80413062373412,2.1296599713822677,0.9079851605733396,C,355,Incorrect
2,relearn,1,790,A,41.07277949750815,31.42277068383676,2.0536389748754074,0.4935877276788914,C,374,Incorrect
2,relearn,1,791,A,16.85768017891985,67.89277357302709,0.8428840089459925,1.066457193444286,B,4181,Incorrect
2,relearn,1,792,C,72.7693379205914,69.83917855147368,3.63846689602957,1.0970312513502778,C,556,Correct
2,relearn,1,793,C,80.34408041986721,73.83546772173264,4.01720402099336,1.159804814844808,C,502,Correct
2,relearn,1,794,C,73.29085036715438,49.600172054431106,3.6645425183577185,0.7791176807149526,C,2975,Correct
2,relearn,1,795,A,37.27973254431856,67.57223708104407,1.8639866272159282,1.0614222180021793,B,783,Incorrect
2,relearn,1,796,C,91.3381731260978,34.26907113907447,4.56690865630489,0.5382973106793117,C,661,Correct
2,relearn,1,797,C,79.78227179793602,30.214768105710643,3.989113589896801,0.4746124675540988,C,661,Correct
2,relearn,1,798,A,9.241213712339674,55.78822133597188,0.46206068561698366,0.8763193315296531,A,2038,Correct
2,relearn,1,799,D,59.8382849673349,4.661043921462806,2.9919142483667454,0.07321550670863457,D,783,Correct
2,relearn,1,800,D,23.856294213147915,23.09266390032061,1.1928147106573959,0.36273871630532717,C,718,Incorrect
2,relearn,1,801,D,35.89646435798131,43.48552724224754,1.7948232178990653,0.6830690646086185,D,686,Correct
2,relearn,1,802,A,47.424402987168094,56.94172038664983,2.371220149358405,0.8944384522473162,C,2285,Incorrect
2,relearn,1,803,A,28.162772258315936,73.06436366678017,1.408138612915797,1.147692340673848,C,653,Incorrect
2,relearn,1,804,B,41.68737577859558,60.381580729225306,2.0843687889297793,0.9484716521553662,B,2316,Correct
2,relearn,1,805,D,53.01348246339961,6.353173030605813,2.6506741231699804,0.09979540859968011,C,584,Incorrect
2,relearn,1,806,B,70.41179147363536,79.15536440793528,3.5205895736817685,1.2433695565809622,C,413,Incorrect
2,relearn,1,807,B,65.94170779297549,79.08108437803845,3.2970853896487746,1.2422027685998007,B,627,Correct
2,relearn,1,808,A,36.33514743967178,25.96522527172572,1.8167573719835888,0.40786080481228776,C,2302,Incorrect
2,relearn,1,809,A,18.120580018072808,50.64464269428478,0.9060290009036405,0.7955241871602251,B,670,Incorrect
2,relearn,1,810,B,55.840737746182135,51.8001646750222,2.792036887309107,0.8136750839889562,C,664,Incorrect
2,relearn,1,811,D,53.06390814287327,51.62108573103285,2.6531954071436634,0.8108621185147085,C,3355,Incorrect
2,relearn,1,812,C,61.75431926460222,43.619483405485056,3.0877159632301114,0.6851732431002686,C,614,Correct
2,relearn,1,813,C,76.57756226308169,26.266177206307194,3.8288781131540843,0.4125881467461117,C,4594,Correct
2,relearn,1,814,B,64.30559030967851,59.103602118882634,3.2152795154839255,0.9283972110868791,C,527,Incorrect
2,relearn,1,815,C,79.59776566344561,50.177449450248936,3.9798882831722806,0.7881855328438764,C,614,Correct
2,relearn,1,816,B,31.37713192794912,87.23818771433109,1.568856596397456,1.3703342481791496,B,5535,Correct
2,relearn,1,817,A,16.269422671221243,39.06286114687518,0.813471133561062,0.6135979880361061,D,661,Incorrect
2,relearn,1,818,B,62.51265417154751,57.14577857669468,3.125632708577376,0.8976437908010649,C,478,Incorrect
2,relearn,1,819,B,50.16456257883775,52.683988900156585,2.5082281289418877,0.8275581624526905,C,590,Incorrect
2,relearn,1,820,A,50.775045528902226,44.449505703010935,2.5387522764451114,0.6982112028613838,C,989,Incorrect
2,relearn,1,821,D,33.93172239746396,36.77219176761486,1.6965861198731977,0.5776162375676696,B,749,Incorrect
2,relearn,1,822,D,52.99753251293976,18.13823469015429,2.6498766256469883,0.2849147242583813,C,568,Incorrect
2,relearn,1,823,C,97.39775649817001,44.82472954468493,4.8698878249085,0.7041052051836576,C,1765,Correct
2,relearn,1,824,B,75.5905063477371,79.0535270808414,3.7795253173868555,1.2417698995876656,C,454,Incorrect
2,relearn,1,825,A,7.1361771705349355,54.870965890285284,0.35680885852674676,0.8619111166814818,B,2939,Incorrect
2,relearn,1,826,B,48.59088957679765,64.2928931469545,2.4295444788398823,1.009910403942529,C,503,Incorrect
2,relearn,1,827,D,57.895887908602624,23.59820609063242,2.8947943954301314,0.3706797544611437,C,510,Incorrect
2,relearn,1,828,A,47.901912112196044,45.10539759106626,2.3950956056098023,0.7085139285467025,C,627,Incorrect
2,relearn,1,829,A,2.8761417263724773,64.73868487397732,0.14380708631862388,1.016912884015759,A,1263,Correct
2,relearn,1,830,D,34.350308843691124,21.89740546760133,1.7175154421845562,0.3439636407484665,D,941,Correct
2,relearn,1,831,D,54.91405035248928,3.842522425748534,2.745702517624464,0.06035820111992813,D,4133,Correct
2,relearn,1,832,A,4.594098139725801,52.364312343260785,0.22970490698629006,0.8225366948393471,A,590,Correct
2,relearn,1,833,B,60.900863117682775,68.51538259712994,3.0450431558841387,1.0762371131251869,C,1014,Incorrect
2,relearn,1,834,A,22.51517616415512,58.050670352450666,1.1257588082077559,0.911857797576109,A,2205,Correct
2,relearn,1,835,B,58.71445803537097,63.15314846788995,2.9357229017685484,0.9920073363889428,C,635,Incorrect
2,relearn,1,836,C,81.99813049488105,59.46951913016847,4.0999065247440525,0.9341450220592746,C,2207,Correct
2,relearn,1,837,A,38.58618884192799,54.05872261041185,1.9293094420963997,0.8491524290765915,B,621,Incorrect
2,relearn,1,838,A,6.699406370092198,55.788143421690705,0.3349703185046099,0.8763181076549862,C,291,Incorrect
2,relearn,1,839,D,62.534100263173855,43.19567047112227,3.1267050131586926,0.6785160050948164,C,448,Incorrect
2,relearn,1,840,D,35.98043785411358,26.56785140804594,1.799021892705679,0.4173268340259118,D,725,Correct
2,relearn,1,841,D,38.89599810800901,21.414139518400596,1.9447999054004503,0.33637251696977094,D,387,Correct
2,relearn,1,842,C,88.1318372621178,63.24711882981694,4.4065918631058905,0.9934834193823678,C,407,Correct
2,relearn,1,843,A,22.316962844584403,45.253838374353705,1.1158481422292201,0.7108456309180473,A,608,Correct
2,relearn,1,844,C,84.41205233533556,40.823422849762444,4.220602616766778,0.6412528265960169,C,461,Correct
2,relearn,1,845,D,60.82210145373811,22.362438657959252,3.0411050726869053,0.3512683650209859,D,511,Correct
2,relearn,1,846,A,24.80271887585734,74.88094466244567,1.240135943792867,1.1762271282270158,B,1150,Incorrect
2,relearn,1,847,A,37.55048913049081,60.36586490669943,1.8775244565245404,0.9482247885924041,A,605,Correct
2,relearn,1,848,A,22.532223058222808,27.373786694214647,1.1266111529111404,0.42998643589739377,A,623,Correct
2,relearn,1,849,A,46.34203796230781,62.58708267762955,2.3171018981153906,0.98311559574829,A,718,Correct
2,relearn,1,850,D,35.16366294140516,22.692064756712522,1.758183147070258,0.35644611967235956,A,467,Incorrect
2,relearn,1,851,D,48.19693900336327,45.35491465217096,2.4098469501681636,0.7124333333772618,C,367,Incorrect
2,relearn,1,852,A,21.569362074989705,57.815222963404736,1.0784681037494852,0.908159398637441,B,580,Incorrect
2,relearn,1,853,C,76.56314027107706,61.51985438473577,3.8281570135538527,0.9663516129249987,C,464,Correct
2,relearn,1,854,B,61.95472309156318,52.77329670658389,3.0977361545781594,0.8289610061955919,C,429,Incorrect
2,relearn,1,855,D,65.31003292315863,38.64754678535234,3.2655016461579316,0.6070742453006537,C,415,Incorrect
2,relearn,1,856,C,55.92913195848355,39.0475100617697,2.7964565979241773,0.613356853755146,C,355,Correct
2,relearn,1,857,C,54.07126845631639,58.66410910017423,2.703563422815819,0.9214936708924875,C,360,Correct
2,relearn,1,858,A,50.05034725165521,45.668780786043335,2.5025173625827604,0.7173635310791822,C,443,Incorrect
2,relearn,1,859,C,68.86912211456219,72.45118384971161,3.4434561057281092,1.1380605346306873,C,541,Correct
2,relearn,1,860,D,41.84263419362557,5.4398045343873385,2.0921317096812784,0.08544824981097854,D,948,Correct
2,relearn,1,861,D,47.097006649339164,11.132464820255395,2.3548503324669583,0.17486834847830582,D,734,Correct
2,relearn,1,862,C,84.74887137516356,54.45531178764939,4.237443568758178,0.855382037305105,C,710,Correct
2,relearn,1,863,B,39.23984462170696,97.89365300896658,1.961992231085348,1.5377099056301886,B,3431,Correct
2,relearn,1,864,C,62.16835417730741,66.04522012972325,3.10841770886537,1.0374358918212963,C,743,Correct
2,relearn,1,865,D,57.60417382893093,7.982018774529461,2.880208691446547,0.1253812577143878,D,524,Correct
2,relearn,1,866,D,57.04504862785949,33.94964280108088,2.8522524313929747,0.5332797420793665,C,590,Incorrect
2,relearn,1,867,A,-0.15281075526585752,57.54805677286538,-0.007640537763292876,0.9039627619300112,A,629,Correct
2,relearn,1,868,D,47.22076956185492,43.04074597645457,2.361038478092746,0.6760824568232706,C,576,Incorrect
2,relearn,1,869,D,65.16103350871157,7.926702453765266,3.2580516754355786,0.12451235097970574,D,514,Correct
2,relearn,1,870,D,54.841334510988126,7.493529642658377,2.7420667255494062,0.11770808837416451,D,505,Correct
2,relearn,1,871,D,53.68557064777615,3.307582905565617,2.6842785323888076,0.05195539078632063,D,522,Correct
2,relearn,1,872,B,45.48699598535236,67.80027986516646,2.274349799267618,1.0650043056786946,C,542,Incorrect
2,relearn,1,873,B,25.038108796514905,76.83788858125047,1.2519054398257452,1.2069667314210375,B,432,Correct
2,relearn,1,874,A,43.040141642920766,67.40949620784608,2.152007082146038,1.0588658903437913,B,398,Incorrect
2,relearn,1,875,D,26.528357913474753,12.130413439090301,1.3264178956737376,0.1905440887262649,A,406,Incorrect
2,relearn,1,876,C,56.13909545831844,44.3963772171783,2.8069547729159217,0.697376662557443,C,542,Correct
2,relearn,1,877,D,52.59244382753388,42.0473581648297,2.6296221913766935,0.6604783575674389,D,677,Correct
2,relearn,1,878,C,56.368558375156304,38.33096362624619,2.8184279187578154,0.602101368666163,D,558,Incorrect
2,relearn,1,879,C,92.75835221042853,58.91930730923767,4.637917610521426,0.9255023149865022,C,891,Correct
2,relearn,1,880,A,21.27675181496793,49.91815328269649,1.0638375907483963,0.7841125181684425,A,663,Correct
2,relearn,1,881,D,41.515670099814706,19.168475196125662,2.0757835049907354,0.3010977042833327,D,534,Correct
2,relearn,1,882,D,67.3152562829048,9.15480122623886,3.36576281414524,0.1438032813871342,D,492,Correct
2,relearn,1,883,C,59.12470983984274,50.968186454096205,2.956235491992137,0.8006064006549173,D,399,Incorrect
2,relearn,1,884,C,57.16494848825735,36.07332321517635,2.8582474244128675,0.5666384360168408,C,479,Correct
2,relearn,1,885,B,44.0965114491793,50.63946759728526,2.204825572458965,0.7954428969266486,C,396,Incorrect
2,relearn,1,886,C,66.98333860325037,62.58592738947415,3.349166930162519,0.9830974485243811,C,543,Correct
2,relearn,1,887,B,36.132986418616056,72.38702999317238,1.8066493209308028,1.1370528082086717,B,309,Correct
2,relearn,1,888,A,32.73609438237334,55.062632384125926,1.6368047191186668,0.8649218069264273,D,2820,Incorrect
2,relearn,1,889,B,31.342127944404737,66.85093176878918,1.567106397220237,1.050091980652303,C,526,Incorrect
2,relearn,1,890,A,28.8559690717783,44.55102663192433,1.442798453588915,0.6998058898836835,C,497,Incorrect
2,relearn,1,891,D,42.01677727019479,6.199466546315467,2.1008388635097393,0.0973809927904018,C,476,Incorrect
2,relearn,1,892,A,2.944684342992808,58.56459805074589,0.1472342171496404,0.9199305549833121,A,580,Correct
2,relearn,1,893,C,52.35313697175922,41.894541154397054,2.617656848587961,0.6580779135808452,C,631,Correct
2,relearn,1,894,D,47.2592496045087,44.72210076660413,2.3629624802254354,0.70249311610733,C,438,Incorrect
2,relearn,1,895,A,18.809579723219176,30.712569364171447,0.9404789861609588,0.48243191143673975,C,428,Incorrect
2,relearn,1,896,A,36.97527272194355,72.72962337423758,1.8487636360971775,1.1424342524542865,C,334,Incorrect
2,relearn,1,897,C,64.08683864151166,65.11643437372544,3.2043419320755833,1.0228465592822886,C,159,Correct
2,relearn,1,898,A,46.54750279890213,34.110021576245344,2.3273751399451066,0.5357989659886085,D,550,Incorrect
