experiment,condition,subject,trial,cat,x,y,xt,yt,resp,rt,fb
2,new_learn,18,0,C,68.65893245189596,67.57921782969358,3.432946622594798,1.0615318713455486,B,815,Incorrect
2,new_learn,18,1,D,63.56680866936693,23.69680859293903,3.178340433468346,0.37222859894550364,B,565,Incorrect
2,new_learn,18,2,C,83.49217716135485,52.315267817617325,4.174608858067742,0.8217663052320454,B,534,Incorrect
2,new_learn,18,3,B,67.09525672552911,91.25789901332215,3.3547628362764557,1.4334757256114605,D,356,Incorrect
2,new_learn,18,4,C,57.26763775289115,42.792988022173155,2.863381887644557,0.672190683978076,B,365,Incorrect
2,new_learn,18,5,D,27.62457867521862,18.109313062573023,1.381228933760931,0.28446042439468544,B,501,Incorrect
2,new_learn,18,6,C,64.71505555788926,38.177284355623804,3.2357527778944633,0.5996873803281815,C,309,Correct
2,new_learn,18,7,B,58.153902610511956,74.1421523003703,2.907695130525598,1.1646222049408945,B,431,Correct
2,new_learn,18,8,D,56.69574558858567,23.507343562966,2.8347872794292837,0.3692524892141265,D,1070,Correct
2,new_learn,18,9,A,19.65517101611157,52.195800026968534,0.9827585508055785,0.8198897095648312,B,1069,Incorrect
2,new_learn,18,10,B,41.06282438886132,99.49672746634998,2.053141219443066,1.5628909403225544,D,736,Incorrect
2,new_learn,18,11,C,59.22772490036829,48.57812450597957,2.9613862450184145,0.7630633953657786,D,525,Incorrect
2,new_learn,18,12,C,74.15636028676116,36.724757740140426,3.7078180143380575,0.5768711456064503,B,556,Incorrect
2,new_learn,18,13,A,8.41243311530939,44.796728395037114,0.4206216557654695,0.7036653641535294,A,508,Correct
2,new_learn,18,14,D,50.68574996988384,7.605741739225937,2.5342874984941917,0.11947071186526731,B,782,Incorrect
2,new_learn,18,15,A,5.798061630137465,67.01647658799914,0.2899030815068732,1.0526923525916523,B,621,Incorrect
2,new_learn,18,16,D,59.55627105271724,21.388196913563693,2.977813552635862,0.33596501148591795,B,541,Incorrect
2,new_learn,18,17,A,-0.1706680924275581,52.53033139774357,-0.008533404621377905,0.8251445160489423,D,695,Incorrect
2,new_learn,18,18,B,29.203084913635955,82.78252207429517,1.4601542456817977,1.300344815971203,B,540,Correct
2,new_learn,18,19,B,49.92243952063274,70.26929635623458,2.496121976031637,1.1037875260283527,B,389,Correct
2,new_learn,18,20,A,40.03436219882531,38.24843147105057,2.0017181099412658,0.6008049566039256,B,629,Incorrect
2,new_learn,18,21,A,24.767673221460086,44.349536859397084,1.2383836610730043,0.6966408959379581,D,496,Incorrect
2,new_learn,18,22,D,64.87755070486807,33.70459927045274,3.2438775352434037,0.5294306073012112,B,333,Incorrect
2,new_learn,18,23,A,2.154023838012403,41.20083975993376,0.10770119190062015,0.6471812775576907,D,432,Incorrect
2,new_learn,18,24,A,37.077956844797015,72.6020486570935,1.8538978422398509,1.1404303134834681,D,323,Incorrect
2,new_learn,18,25,D,42.94240393157252,50.29537328337784,2.147120196578626,0.7900378760830807,B,335,Incorrect
2,new_learn,18,26,A,3.199029332754513,48.879694407021006,0.15995146663772566,0.7678004442940565,B,700,Incorrect
2,new_learn,18,27,A,12.268885392703188,32.3262526124078,0.6134442696351594,0.5077795886261409,B,727,Incorrect
2,new_learn,18,28,D,47.843598627425806,22.634770820109953,2.3921799313712904,0.3555461486207302,B,467,Incorrect
2,new_learn,18,29,B,59.38324760583215,56.77822667330468,2.9691623802916074,0.8918702990035502,B,470,Correct
2,new_learn,18,30,C,75.36195822224931,66.36209825261292,3.7680979111124655,1.042413401736064,B,279,Incorrect
2,new_learn,18,31,C,78.6557658600003,64.4889174997654,3.9327882930000153,1.0129895472761064,D,316,Incorrect
2,new_learn,18,32,B,26.593727202923734,67.25971008970122,1.3296863601461868,1.056513055501923,B,293,Correct
2,new_learn,18,33,B,58.24668682200073,89.04898108719341,2.9123343411000366,1.3987781239659163,C,277,Incorrect
2,new_learn,18,34,A,29.46219409661152,68.4281571020951,1.473109704830576,1.074866978253151,B,321,Incorrect
2,new_learn,18,35,A,18.792160482154145,68.95594593590307,0.9396080241077073,1.0831574658678402,B,299,Incorrect
2,new_learn,18,36,C,68.49831469444409,25.816944001749015,3.424915734722205,0.4055316080701689,C,343,Correct
2,new_learn,18,37,D,27.494662015267554,30.21013470516269,1.3747331007633778,0.4745396862684858,B,510,Incorrect
2,new_learn,18,38,B,38.56079842303424,74.84661353554313,1.928039921151712,1.1756878561466833,D,309,Incorrect
2,new_learn,18,39,D,35.02873753941709,24.1646385293507,1.7514368769708542,0.3795772544023051,B,470,Incorrect
2,new_learn,18,40,B,32.780946168208885,60.34965594067816,1.6390473084104442,0.9479701787495306,B,278,Correct
2,new_learn,18,41,D,65.6942233301303,38.72082248960012,3.284711166506515,0.6082252573714109,B,292,Incorrect
2,new_learn,18,42,B,30.104955133098745,66.37772785004923,1.5052477566549374,1.0426589108784865,D,310,Incorrect
2,new_learn,18,43,B,31.393956731308062,79.30520684300076,1.569697836565403,1.245723276046951,D,708,Incorrect
2,new_learn,18,44,B,57.99733661704633,69.0313830922216,2.8998668308523166,1.0843424299483302,C,393,Incorrect
2,new_learn,18,45,C,82.52227562441769,50.08021030746035,4.126113781220885,0.7866581039607464,D,339,Incorrect
2,new_learn,18,46,B,42.700592156863706,94.77494511233934,2.1350296078431854,1.4887213565465058,B,46,Correct
2,new_learn,18,47,D,63.3298933500787,42.70501084339164,3.166494667503935,0.6708087416853582,D,277,Correct
2,new_learn,18,48,D,36.185672361760325,2.8707843490359792,1.8092836180880163,0.04509417510485994,D,396,Correct
2,new_learn,18,49,C,74.68087945527984,44.44794707061573,3.7340439727639922,0.6981867199209717,D,320,Incorrect
2,new_learn,18,50,A,12.325735793930525,53.4760073105706,0.6162867896965263,0.8399991585510134,C,302,Incorrect
2,new_learn,18,51,A,20.717858451613246,47.72854491369656,1.0358929225806621,0.749718230336998,D,268,Incorrect
2,new_learn,18,52,C,83.04539301811374,31.085533681783318,4.152269650905687,0.4882904212380427,B,612,Incorrect
2,new_learn,18,53,C,78.96755613422951,65.51492877876896,3.9483778067114756,1.0291060947591955,C,295,Correct
2,new_learn,18,54,C,60.157144507907226,46.9791824071488,3.0078572253953615,0.7379472716097676,C,303,Correct
2,new_learn,18,55,D,36.39526247165514,43.21421693083347,1.819763123582757,0.6788073322027104,A,324,Incorrect
2,new_learn,18,56,D,47.09465566081263,37.6871345700139,2.3547327830406313,0.591988125500028,D,301,Correct
2,new_learn,18,57,C,66.35302681365673,43.02212131436165,3.317651340682836,0.6757899013152371,C,295,Correct
2,new_learn,18,58,B,52.6830150804752,96.14427246815069,2.6341507540237603,1.5102307003533881,D,316,Incorrect
2,new_learn,18,59,B,47.39533027362125,49.43390612650127,2.3697665136810624,0.7765059816263192,D,331,Incorrect
2,new_learn,18,60,D,30.856519071189215,39.02030722351945,1.5428259535594608,0.6129295525711272,B,22,Incorrect
2,new_learn,18,61,C,53.996274753175214,35.01971984604312,2.6998137376587605,0.5500884729955087,B,71,Incorrect
2,new_learn,18,62,A,7.196332143911945,69.21056088001151,0.35981660719559727,1.0871569480573666,B,387,Incorrect
2,new_learn,18,63,D,47.90587235714615,46.22773181860781,2.3952936178573077,0.726143513367287,C,290,Incorrect
2,new_learn,18,64,C,84.41174251193237,59.87003258993613,4.220587125596619,0.9404362727736242,C,202,Correct
2,new_learn,18,65,D,44.62168020619644,18.001451714788004,2.231084010309822,0.2827661423056469,C,270,Incorrect
2,new_learn,18,66,D,74.94845322523378,29.017986965800553,3.7474226612616888,0.45581347336861694,C,320,Incorrect
2,new_learn,18,67,C,82.42304946347548,64.83320793552328,4.121152473173774,1.018397648794497,B,310,Incorrect
2,new_learn,18,68,D,44.5079864030164,20.28197528922755,2.22539932015082,0.31858852284463496,A,2011,Incorrect
2,new_learn,18,69,C,59.496710526488215,32.007961100356866,2.9748355263244104,0.502779877246345,A,263,Incorrect
2,new_learn,18,70,B,62.95033987705644,78.20439431795745,3.1475169938528222,1.2284317533386724,C,277,Incorrect
2,new_learn,18,71,D,32.63931695641893,33.595171318651126,1.6319658478209464,0.5277117170538246,D,271,Correct
2,new_learn,18,72,B,48.45662561590292,78.15173337755223,2.4228312807951458,1.2276045572211316,C,261,Incorrect
2,new_learn,18,73,C,82.80681718997883,60.92365092360971,4.1403408594989415,0.9569864708574065,D,237,Incorrect
2,new_learn,18,74,B,47.45922518251939,100.84390071245227,2.3729612591259697,1.5840522881878925,D,239,Incorrect
2,new_learn,18,75,B,27.72917537267513,81.79416218293127,1.3864587686337564,1.2848196951021449,D,276,Incorrect
2,new_learn,18,76,D,58.51985320336145,7.298461175793779,2.925992660168072,0.1146439600619203,B,431,Incorrect
2,new_learn,18,77,D,34.487255821438936,9.166175859390998,1.7243627910719468,0.14398195370687433,B,252,Incorrect
2,new_learn,18,78,A,6.098677278456808,46.78565621450919,0.3049338639228404,0.7349073692843987,B,228,Incorrect
2,new_learn,18,79,B,44.02510903295265,55.554777716844626,2.2012554516476324,0.8726524077352652,B,262,Correct
2,new_learn,18,80,B,29.5691888201656,85.01771795574142,1.47845944100828,1.3354551907736314,C,294,Incorrect
2,new_learn,18,81,C,75.22652388483422,50.741434290895285,3.7613261942417116,0.7970445860044293,B,280,Incorrect
2,new_learn,18,82,D,28.172255884904025,11.640658996147915,1.4086127942452011,0.18285104392621113,D,301,Correct
2,new_learn,18,83,B,51.43849170865792,51.05934422703669,2.571924585432896,0.8020383036038544,D,343,Incorrect
2,new_learn,18,84,A,34.99197012826411,64.79984178904894,1.7495985064132054,1.0178735345912853,C,331,Incorrect
2,new_learn,18,85,B,35.003849235111055,61.47444232466413,1.7501924617555529,0.9656382819534715,D,279,Incorrect
2,new_learn,18,86,A,23.542496448406727,71.07860253984711,1.1771248224203363,1.1165000778330625,B,238,Incorrect
2,new_learn,18,87,A,15.890844400259661,40.223888258185,0.794542220012983,0.6318353592536536,B,251,Incorrect
2,new_learn,18,88,D,63.62576479653629,15.910920981753087,3.1812882398268143,0.24992816234061596,D,295,Correct
2,new_learn,18,89,D,42.51141748662269,0.8570941872647992,2.1255708743311343,0.013463204010728038,B,317,Incorrect
2,new_learn,18,90,B,57.28984528678645,73.3691752161784,2.8644922643393227,1.152480309295442,D,301,Incorrect
2,new_learn,18,91,B,46.53854038750219,74.97790573565604,2.3269270193751095,1.177750189203425,B,286,Correct
2,new_learn,18,92,D,44.68171538673356,24.33235603730446,2.2340857693366782,0.3822117548566347,D,517,Correct
2,new_learn,18,93,D,58.44494028030684,38.87204337487612,2.922247014015342,0.6106006294826731,D,300,Correct
2,new_learn,18,94,D,47.88966374516973,33.48270859356776,2.3944831872584866,0.5259451566992015,D,335,Correct
2,new_learn,18,95,B,42.272409837956985,59.847734847856714,2.113620491897849,0.9400860206600825,C,436,Incorrect
2,new_learn,18,96,D,32.6737152065664,36.1023520770897,1.63368576032832,0.567094420313486,B,407,Incorrect
2,new_learn,18,97,A,46.168117294757536,47.12113748010823,2.308405864737877,0.7401770966815134,B,422,Incorrect
2,new_learn,18,98,D,56.300993482810185,18.940542108573467,2.8150496741405093,0.2975173397165126,D,701,Correct
2,new_learn,18,99,D,53.21882812322286,8.008040343728492,2.660941406161143,0.12579000356754058,D,759,Correct
2,new_learn,18,100,D,60.713856893562706,47.2823376915014,3.0356928446781355,0.7427092236808629,A,949,Incorrect
2,new_learn,18,101,D,46.863093559409634,31.612509137843848,2.3431546779704817,0.4965681323449522,D,1174,Correct
2,new_learn,18,102,A,1.3934384338649188,62.454395281662784,0.06967192169324594,0.9810313470063241,D,827,Incorrect
2,new_learn,18,103,B,61.3960625411196,62.357318926610716,3.0698031270559802,0.9795064751869799,C,1399,Incorrect
2,new_learn,18,104,A,25.01053839973679,54.69154017522986,1.2505269199868396,0.8590927041400658,B,714,Incorrect
2,new_learn,18,105,B,50.007663596445624,97.42061688126127,2.5003831798222813,1.530279471511781,D,1518,Incorrect
2,new_learn,18,106,C,70.1282769316059,33.0723010122788,3.506413846580295,0.5194984894874268,D,1046,Incorrect
2,new_learn,18,107,C,83.71472221861873,71.57705886304758,4.185736110930936,1.1243298114485722,D,1056,Incorrect
2,new_learn,18,108,C,92.60944915485425,39.90683069542425,4.630472457742712,0.6268550307039823,A,596,Incorrect
2,new_learn,18,109,A,41.10770263775325,55.71823994375871,2.0553851318876624,0.8752200663913285,B,1101,Incorrect
2,new_learn,18,110,A,23.197621749600778,76.45440538050174,1.159881087480039,1.2009429913898013,B,517,Incorrect
2,new_learn,18,111,D,43.590933552996376,11.169701759744083,2.1795466776498187,0.17545326495600497,B,494,Incorrect
2,new_learn,18,112,D,49.29796043706524,1.593935717558601,2.464898021853262,0.02503748370288238,C,772,Incorrect
2,new_learn,18,113,B,48.16987575293145,97.5898598076003,2.408493787646573,1.5329379331820747,D,719,Incorrect
2,new_learn,18,114,B,27.109431008721483,71.48337313483599,1.3554715504360741,1.1228581994710936,B,759,Correct
2,new_learn,18,115,D,28.89690616712707,38.954831367936634,1.4448453083563535,0.6119010602366948,B,756,Incorrect
2,new_learn,18,116,A,14.95735393522649,30.24153966720639,0.7478676967613245,0.47503299425869955,D,1025,Incorrect
2,new_learn,18,117,A,35.68759194782899,72.38166214641329,1.7843795973914496,1.1369684902689519,D,731,Incorrect
2,new_learn,18,118,B,62.3895970677162,85.30148765094192,3.11947985338581,1.339912634722398,B,670,Correct
2,new_learn,18,119,C,54.444978471761274,66.09472042842174,2.7222489235880634,1.0382134406950048,B,816,Incorrect
2,new_learn,18,120,A,16.768491313673973,68.95132072098673,0.8384245656836987,1.0830848131618278,A,927,Correct
2,new_learn,18,121,D,61.85736358392207,14.188901348860728,3.092868179196104,0.22287874120045584,A,934,Incorrect
2,new_learn,18,122,A,32.89962656346387,28.133473541871844,1.6449813281731935,0.4419195689955371,D,732,Incorrect
2,new_learn,18,123,C,58.236242422812666,58.87659444972812,2.9118121211406334,0.9248313829582573,C,717,Correct
2,new_learn,18,124,B,67.80532295458421,58.373855564589746,3.3902661477292106,0.9169343790171341,B,856,Correct
2,new_learn,18,125,C,76.01949931312664,65.22860388040746,3.800974965656332,1.0246085137730339,C,516,Correct
2,new_learn,18,126,C,54.30511876036837,63.117750717688494,2.7152559380184185,0.9914513098290104,D,528,Incorrect
2,new_learn,18,127,D,38.723452074892,42.710127201876944,1.9361726037446,0.6708891092565109,D,292,Correct
2,new_learn,18,128,B,46.954085955571564,88.34312084753573,2.3477042977785785,1.3876904972490676,B,350,Correct
2,new_learn,18,129,D,63.88645587354239,32.93861241616643,3.1943227936771192,0.5173985139303501,B,381,Incorrect
2,new_learn,18,130,D,64.8127081266316,14.527972304608644,3.24063540633158,0.22820485531857249,D,357,Correct
2,new_learn,18,131,A,36.527791631461284,41.099603588438896,1.8263895815730644,0.6455910634944618,B,511,Incorrect
2,new_learn,18,132,D,48.365541355757706,39.32418062206999,2.4182770677878853,0.6177027847536659,B,328,Incorrect
2,new_learn,18,133,A,42.04188770592283,52.199462933735965,2.1020943852961413,0.8199472463697881,B,294,Incorrect
2,new_learn,18,134,D,64.85450251692582,36.22153893398038,3.2427251258462912,0.5689666030835472,D,315,Correct
2,new_learn,18,135,D,45.73888653947758,10.804122805703978,2.286944326973879,0.1697107641744078,C,309,Incorrect
2,new_learn,18,136,C,64.49437997940825,55.1841927018434,3.2247189989704124,0.8668312719319735,D,305,Incorrect
2,new_learn,18,137,C,97.69410307633123,36.198329606927345,4.884705153816562,0.5686020318267242,D,309,Incorrect
2,new_learn,18,138,B,74.01664961123282,83.55486389038302,3.7008324805616413,1.3124767328486118,D,322,Incorrect
2,new_learn,18,139,B,72.01289753661837,64.03165780046956,3.6006448768309185,1.0058069287156535,D,302,Incorrect
2,new_learn,18,140,D,31.11231539214743,32.76931805759519,1.5556157696073714,0.514739244364442,C,294,Incorrect
2,new_learn,18,141,A,3.679538850234973,37.5416861914011,0.18397694251174865,0.5897034277113954,C,325,Incorrect
2,new_learn,18,142,C,87.61168862485498,32.368218952399815,4.380584431242749,0.5084387943532259,C,484,Correct
2,new_learn,18,143,B,48.34939683480646,81.7562974638191,2.4174698417403233,1.2842249174851794,D,318,Incorrect
2,new_learn,18,144,D,40.57648022074996,30.508553934459492,2.0288240110374978,0.47922724456072957,D,311,Correct
2,new_learn,18,145,D,36.34265515763738,40.08131328086137,1.817132757881869,0.6295957967469255,C,348,Incorrect
2,new_learn,18,146,D,24.328647390003212,17.550492057033516,1.2164323695001606,0.27568248456631256,D,761,Correct
2,new_learn,18,147,C,68.89406619642307,56.93388835738228,3.4447033098211532,0.8943154270192681,B,468,Incorrect
2,new_learn,18,148,C,70.89786825546518,42.81543147437041,3.544893412773259,0.6725432249007965,B,5,Incorrect
2,new_learn,18,149,D,58.94709370947083,28.66058448610755,2.9473546854735413,0.45019940834572536,D,232,Correct
2,new_learn,18,150,D,53.09695474342655,44.475626904119295,2.6548477371713273,0.6986215137289087,C,299,Incorrect
2,new_learn,18,151,B,44.70551863031895,55.97208714806008,2.2352759315159476,0.879207488952166,D,280,Incorrect
2,new_learn,18,152,D,48.72057080500789,41.21938166352078,2.4360285402503945,0.6474725330981536,B,258,Incorrect
2,new_learn,18,153,C,84.9348161475942,54.61153028531821,4.246740807379711,0.8578359117282608,C,615,Correct
2,new_learn,18,154,B,53.12508582329567,66.76761042498626,2.6562542911647835,1.0487831720444105,B,311,Correct
2,new_learn,18,155,A,23.862020413893998,57.422294636900936,1.1931010206947,0.9019872949177828,C,292,Incorrect
2,new_learn,18,156,D,49.78046136194843,49.114350334555226,2.4890230680974215,0.7714864109843704,B,672,Incorrect
2,new_learn,18,157,A,29.556950401122023,28.331690590740326,1.4778475200561012,0.4450331551182443,B,844,Incorrect
2,new_learn,18,158,B,54.45293196333084,83.08144959696415,2.722646598166542,1.3050403585170665,B,951,Correct
2,new_learn,18,159,B,54.806046405623114,68.65272670667295,2.7403023202811556,1.0783945093529577,D,558,Incorrect
2,new_learn,18,160,B,34.53627767230556,78.92580333508354,1.726813883615278,1.2397636196808564,B,445,Correct
2,new_learn,18,161,A,47.79213784311419,56.69871706841058,2.3896068921557094,0.8906213650504244,B,958,Incorrect
2,new_learn,18,162,D,48.13016726635499,27.697763265927986,2.4065083633177493,0.435075447985543,B,611,Incorrect
2,new_learn,18,163,D,50.390934856574965,35.89328958457208,2.5195467428287484,0.5638104743603134,B,645,Incorrect
2,new_learn,18,164,B,51.99516217773445,57.871965108453054,2.5997581088867223,0.9090507021676046,C,1117,Incorrect
2,new_learn,18,165,B,57.220239855253936,72.80391986883927,2.8610119927626965,1.1436012990624271,B,1173,Correct
2,new_learn,18,166,D,47.71006402935829,48.83786120960283,2.3855032014679147,0.767143329965631,D,1022,Correct
2,new_learn,18,167,A,41.90745121231423,40.204066940299214,2.0953725606157114,0.6315240067203813,B,300,Incorrect
2,new_learn,18,168,D,45.56171014824572,-0.8090863348681232,2.278085507412286,-0.012709098428707937,D,319,Correct
2,new_learn,18,169,C,87.43665051735418,32.79838271261743,4.371832525867709,0.515195790897927,B,316,Incorrect
2,new_learn,18,170,C,55.99087988038744,32.858597735992916,2.7995439940193716,0.5161416462732877,D,296,Incorrect
2,new_learn,18,171,B,46.32514625144388,71.99169005525297,2.316257312572194,1.1308428229854803,A,37,Incorrect
2,new_learn,18,172,D,62.77534545672546,6.927552978003707,3.138767272836273,0.10881774771525268,B,301,Incorrect
2,new_learn,18,173,B,41.49364408470621,64.70349997611291,2.0746822042353106,1.0163602009325183,B,293,Correct
2,new_learn,18,174,B,35.99573291155444,76.17062254413673,1.7997866455777223,1.1964853410201053,D,287,Incorrect
2,new_learn,18,175,D,53.83528468265001,34.789609536168385,2.6917642341325005,0.54647390870042,B,287,Incorrect
2,new_learn,18,176,A,35.96837899201759,74.04395673319031,1.7984189496008796,1.163079752578556,A,300,Correct
2,new_learn,18,177,D,65.0298918525158,41.97370601172167,3.25149459262579,0.6593214322518126,A,299,Incorrect
2,new_learn,18,178,B,29.130943138560102,59.89204777985102,1.4565471569280053,0.9407820865681441,D,318,Incorrect
2,new_learn,18,179,C,77.23315159718803,57.502148935709364,3.861657579859401,0.9032416433102534,D,326,Incorrect
2,new_learn,18,180,C,56.7946251224176,48.04608615988353,2.8397312561208796,0.7547061565681616,C,278,Correct
2,new_learn,18,181,D,50.3863338609436,42.25392519851832,2.51931669304718,0.6637231049449889,B,302,Incorrect
2,new_learn,18,182,C,61.64381889650562,39.76702040316722,3.0821909448252813,0.6246588957687277,D,117,Incorrect
2,new_learn,18,183,B,47.07444630429395,52.362960081773664,2.3537223152146978,0.8225154535655786,B,7,Correct
2,new_learn,18,184,A,46.80420522116199,51.147306539163225,2.3402102610580995,0.803420012371702,B,43,Incorrect
2,new_learn,18,185,C,80.54635101485368,52.80230730322022,4.027317550742684,0.8294167035819365,C,440,Correct
2,new_learn,18,186,A,24.64733189078232,36.74358542594486,1.2323665945391158,0.5771668902034867,B,302,Incorrect
2,new_learn,18,187,A,30.720813484104085,33.30123653471787,1.5360406742052044,0.5230946002646284,B,321,Incorrect
2,new_learn,18,188,B,68.77551692696807,58.316596063704395,3.4387758463484035,0.9160349488804858,D,374,Incorrect
2,new_learn,18,189,C,83.41226043042747,43.86826991946213,4.1706130215213735,0.6890811725233817,D,262,Incorrect
2,new_learn,18,190,D,75.21774908565632,25.74520717746311,3.7608874542828166,0.4044047686693266,C,254,Incorrect
2,new_learn,18,191,A,39.7526945313642,46.118501167299954,1.98763472656821,0.7244277223088093,C,1389,Incorrect
2,new_learn,18,192,D,59.781270695895486,5.97724087237658,2.9890635347947745,0.09389028006697454,B,319,Incorrect
2,new_learn,18,193,C,97.63549540578774,58.98772310347482,4.881774770289387,0.9265769877693271,B,301,Incorrect
2,new_learn,18,194,A,44.41677559700594,52.51156693801666,2.220838779850297,0.8248497646048089,A,331,Correct
2,new_learn,18,195,D,58.844487591517705,36.29202386455224,2.942224379575885,0.5700737777839138,C,302,Incorrect
2,new_learn,18,196,C,69.14692414203883,70.17460112425667,3.457346207101941,1.1023000568027939,C,317,Correct
2,new_learn,18,197,B,24.714324019756113,66.64468027811597,1.2357162009878055,1.0468521898128487,D,348,Incorrect
2,new_learn,18,198,B,33.74548169814281,71.38525589400534,1.6872740849071406,1.1213169774561733,B,349,Correct
2,new_learn,18,199,B,33.22882780437027,69.25623282077377,1.6614413902185134,1.0878743612252362,B,645,Correct
2,new_learn,18,200,A,36.13017222109605,41.706293820994816,1.8065086110548025,0.6551209313824734,B,600,Incorrect
2,new_learn,18,201,C,49.68633594243266,53.81978816277481,2.4843167971216333,0.8453992555496613,B,755,Incorrect
2,new_learn,18,202,D,69.72484829586591,39.291536951460365,3.4862424147932956,0.617190019174799,B,926,Incorrect
2,new_learn,18,203,C,78.04018948284636,76.28606065803085,3.902009474142318,1.1982986386728753,D,419,Incorrect
2,new_learn,18,204,C,85.28198660966422,39.801068272516076,4.26409933048321,0.6251937184498115,C,807,Correct
2,new_learn,18,205,D,51.63286831233507,7.959686325580094,2.5816434156167536,0.1250304604266078,C,262,Incorrect
2,new_learn,18,206,B,48.90604479367252,98.37513004261247,2.445302239683626,1.5452729291890592,C,641,Incorrect
2,new_learn,18,207,B,55.61793844498813,80.67541838557254,2.780896922249406,1.267246508626988,C,301,Incorrect
2,new_learn,18,208,B,36.67331120461712,87.53827468351993,1.833665560230856,1.375048003268358,C,358,Incorrect
2,new_learn,18,209,D,51.15026671973336,9.903419508810222,2.557513335986668,0.15556254987148013,B,299,Incorrect
2,new_learn,18,210,D,44.93650754323352,43.02376460713248,2.246825377161676,0.6758157140977197,B,305,Incorrect
2,new_learn,18,211,A,39.835929170379686,52.98110923868156,1.9917964585189845,0.8322253178164015,B,522,Incorrect
2,new_learn,18,212,A,29.875527690588324,51.77531714697397,1.4937763845294163,0.8132847799310753,D,72,Incorrect
2,new_learn,18,213,D,31.525959615722122,20.43066047589968,1.576297980786106,0.3209240642953689,B,315,Incorrect
2,new_learn,18,214,C,64.23448007459584,57.028097149902585,3.2117240037297914,0.8957952552716948,C,305,Correct
2,new_learn,18,215,C,60.74601678756995,56.54504865039589,3.0373008393784975,0.8882075471848059,C,354,Correct
2,new_learn,18,216,D,55.18715369733838,38.21034350939708,2.7593576848669192,0.6002066723013214,B,305,Incorrect
2,new_learn,18,217,C,79.1118029263563,57.125958512564,3.955590146317815,0.8973324579617319,B,381,Incorrect
2,new_learn,18,218,B,68.87529984236204,87.8265077601285,3.443764992118102,1.3795755578483333,B,284,Correct
2,new_learn,18,219,A,15.872025695540268,27.405036588768883,0.7936012847770134,0.43047730809317897,B,726,Incorrect
2,new_learn,18,220,D,73.0090036259311,29.891872978278318,3.650450181296555,0.469540442752992,C,935,Incorrect
2,new_learn,18,221,B,50.39456465316213,79.65147751103115,2.5197282326581063,1.2511624829811403,B,314,Correct
2,new_learn,18,222,B,46.06681212534562,53.081908730305855,2.303340606267281,0.833808672528264,D,78,Incorrect
2,new_learn,18,223,A,14.099585575825033,31.43071332945997,0.7049792787912517,0.4937124904645911,B,348,Incorrect
2,new_learn,18,224,B,37.838972221059436,54.67036516903241,1.8919486110529717,0.8587600879205175,B,335,Correct
2,new_learn,18,225,B,56.48656186329097,84.24269001276514,2.8243280931645485,1.323281080313726,C,332,Incorrect
2,new_learn,18,226,B,69.51390020780858,66.69321018468224,3.4756950103904285,1.0476144958025886,B,305,Correct
2,new_learn,18,227,C,84.12650533027085,71.19644700059038,4.206325266513542,1.1183511742937489,B,716,Incorrect
2,new_learn,18,228,A,20.021184649817766,66.80606549903592,1.0010592324908882,1.0493872229350492,C,284,Incorrect
2,new_learn,18,229,C,67.4909161944685,42.321198554166095,3.3745458097234247,0.664779832344416,B,296,Incorrect
2,new_learn,18,230,C,78.36502500457651,43.7631655309921,3.918251250228826,0.6874301966499942,C,373,Correct
2,new_learn,18,231,C,64.00328931288546,43.68344317632045,3.2001644656442725,0.6861779208311776,B,99,Incorrect
2,new_learn,18,232,C,54.84217374101597,47.771184429011036,2.7421086870507985,0.750388010277321,B,111,Incorrect
2,new_learn,18,233,A,31.521849176356717,32.316786573315284,1.5760924588178358,0.5076308964317828,B,328,Incorrect
2,new_learn,18,234,A,9.81720480950253,63.710976378978785,0.49086024047512644,1.000769676726163,C,333,Incorrect
2,new_learn,18,235,A,15.62652121781675,25.083073243801902,0.7813260608908376,0.3940039931609138,D,341,Incorrect
2,new_learn,18,236,A,18.694139616624625,27.150609646734644,0.9347069808312313,0.4264807790333287,B,372,Incorrect
2,new_learn,18,237,C,66.1292203473783,54.009809098414486,3.306461017368915,0.8483840974268305,D,345,Incorrect
2,new_learn,18,238,A,34.010727824355314,42.04846698351687,1.7005363912177658,0.6604957748506478,C,307,Incorrect
2,new_learn,18,239,A,7.258315199441029,47.60712102435562,0.36291575997205144,0.747810908343379,B,295,Incorrect
2,new_learn,18,240,D,44.28917075038275,13.220574348944782,2.2144585375191377,0.20766829625441294,B,228,Incorrect
2,new_learn,18,241,D,47.67689863904066,48.419002284424394,2.3838449319520327,0.7605639093544756,B,336,Incorrect
2,new_learn,18,242,C,79.71895259135692,26.095795913526935,3.985947629567846,0.4099118036575738,B,284,Incorrect
2,new_learn,18,243,D,50.04761599927449,8.904335720853002,2.5023807999637246,0.13986897842864482,D,318,Correct
2,new_learn,18,244,A,15.941952983352884,32.51725919214918,0.7970976491676441,0.5107799129646552,B,1942,Incorrect
2,new_learn,18,245,C,55.99799796956805,34.885842704599774,2.7998998984784023,0.5479855357752987,B,334,Incorrect
2,new_learn,18,246,C,70.83415901243316,72.88398144212192,3.541707950621658,1.1448589033147252,B,283,Incorrect
2,new_learn,18,247,B,34.21893521340845,92.99204221614214,1.7109467606704225,1.4607155833427201,C,325,Incorrect
2,new_learn,18,248,D,70.6244168160111,8.159248289660546,3.531220840800555,0.12816517242806327,B,335,Incorrect
2,new_learn,18,249,A,33.74202390158844,43.59658447185647,1.687101195079422,0.6848135474919557,D,303,Incorrect
2,new_learn,18,250,B,36.983149000036505,73.25703532727786,1.8491574500018253,1.1507188200397205,C,298,Incorrect
2,new_learn,18,251,A,34.50127910137331,61.051488409338084,1.7250639550686657,0.9589945373874946,D,319,Incorrect
2,new_learn,18,252,D,53.16210774770349,31.17185971265433,2.6581053873851745,0.48964642736003244,B,291,Incorrect
2,new_learn,18,253,D,62.97606050192485,3.5989324953502617,3.1488030250962424,0.05653189944078982,B,326,Incorrect
2,new_learn,18,254,A,43.00701866178891,34.60597337937044,2.1503509330894457,0.5435893586947707,D,350,Incorrect
2,new_learn,18,255,A,36.81392452196732,67.47139240222725,1.8406962260983661,1.0598381534915566,C,391,Incorrect
2,new_learn,18,256,A,8.704601457988105,36.69529799814853,0.43523007289940524,0.5764083930613584,B,319,Incorrect
2,new_learn,18,257,C,54.28949284932672,45.75343039589406,2.714474642466336,0.7186932040413636,B,306,Incorrect
2,new_learn,18,258,D,73.01274600426278,29.834301682789892,3.6506373002131394,0.46863611495817165,D,343,Correct
2,new_learn,18,259,B,41.41519926408945,70.60755742963639,2.0707599632044724,1.1091009185443255,B,307,Correct
2,new_learn,18,260,D,68.18452725905358,36.8100394035595,3.4092263629526793,0.5782107468428667,A,351,Incorrect
2,new_learn,18,261,B,37.591739483193805,86.42897030868201,1.8795869741596902,1.3576230908954288,B,342,Correct
2,new_learn,18,262,C,52.06487330757341,46.62290080400889,2.6032436653786704,0.7323508132746,B,319,Incorrect
2,new_learn,18,263,D,46.543901107648054,34.36907665369,2.327195055382403,0.5398681936294849,B,276,Incorrect
2,new_learn,18,264,B,52.38908700464605,101.51703042437244,2.6194543502323024,1.5946257849772998,B,310,Correct
2,new_learn,18,265,A,24.232868460712385,24.265489551804826,1.2116434230356192,0.3811614185585496,B,327,Incorrect
2,new_learn,18,266,B,24.881718033499972,67.15749451166997,1.2440859016749986,1.0549074569567962,B,69,Correct
2,new_learn,18,267,C,79.30873232333266,59.291021524408755,3.9654366161666332,0.9313411882245841,B,1815,Incorrect
2,new_learn,18,268,C,98.13036825819161,45.40927238763025,4.9065184129095805,0.7132871826891853,B,285,Incorrect
2,new_learn,18,269,A,6.090253858755535,34.84544776971873,0.3045126929377767,0.547351013621976,B,299,Incorrect
2,new_learn,18,270,C,95.06120391229915,63.654489529633985,4.753060195614958,0.9998823833715327,C,263,Correct
2,new_learn,18,271,B,42.00780470869219,80.0931904635095,2.1003902354346096,1.2581008938136475,D,711,Incorrect
2,new_learn,18,272,D,35.296509420886665,18.999311875286015,1.7648254710443332,0.2984404930532993,B,467,Incorrect
2,new_learn,18,273,C,58.93422456032026,50.04441424896675,2.9467112280160133,0.7860958207887916,C,292,Correct
2,new_learn,18,274,B,57.00706714811299,58.684328567952676,2.8503533574056497,0.9218112775496488,C,367,Incorrect
2,new_learn,18,275,A,34.058445267672504,37.69751800529744,1.7029222633836252,0.5921512281200568,C,436,Incorrect
2,new_learn,18,276,B,65.06082090046488,87.41294326882846,3.253041045023244,1.3730793020100645,C,279,Incorrect
2,new_learn,18,277,C,59.70604445548284,31.03621162567375,2.9853022227741417,0.48751567219237396,D,302,Incorrect
2,new_learn,18,278,D,59.67394034641008,47.45531008393186,2.9836970173205035,0.7454262676675301,C,325,Incorrect
2,new_learn,18,279,A,41.06200027488708,61.67449068203662,2.0531000137443542,0.9687806342028921,C,274,Incorrect
2,new_learn,18,280,D,47.611387754783934,20.6720896504142,2.3805693877391967,0.3247164249004542,B,287,Incorrect
2,new_learn,18,281,B,52.82571350879136,99.16784130103197,2.641285675439568,1.5577248085184026,B,334,Correct
2,new_learn,18,282,A,16.807170951590358,59.80787556337032,0.840358547579518,0.9394599124834836,B,300,Incorrect
2,new_learn,18,283,D,65.57582386273137,21.011704557141258,3.278791193136568,0.33005108338057076,A,45,Incorrect
2,new_learn,18,284,C,83.99988356702627,40.93750974068805,4.1999941783513135,0.6430448992880309,D,261,Incorrect
2,new_learn,18,285,C,70.37766040682256,31.707259724363666,3.5188830203411277,0.49805647107762213,B,295,Incorrect
2,new_learn,18,286,C,87.92860512307948,65.85331363489762,4.396430256153974,1.0344214316496945,B,315,Incorrect
2,new_learn,18,287,B,70.86304174265558,89.38272630235596,3.5431520871327793,1.4040205815465432,D,319,Incorrect
2,new_learn,18,288,A,3.5926914533467027,50.423195556627974,0.17963457266733512,0.7920457036561197,B,272,Incorrect
2,new_learn,18,289,B,28.15178974880162,81.37293882509302,1.4075894874400807,1.2782031340696194,C,323,Incorrect
2,new_learn,18,290,C,54.504980564457504,64.72465764022411,2.725249028222875,1.0166925447432125,B,295,Incorrect
2,new_learn,18,291,B,29.428988049573213,67.74886366715752,1.4714494024786606,1.0641966619289924,C,364,Incorrect
2,new_learn,18,292,B,50.658658362208485,83.35300157362103,2.5329329181104243,1.3093058869917316,B,615,Correct
2,new_learn,18,293,A,35.27068497149576,45.858186223322136,1.7635342485747882,0.7203387047307074,A,326,Correct
2,new_learn,18,294,B,64.60796119124919,55.22201315746831,3.230398059562459,0.8674253542597067,B,1093,Correct
2,new_learn,18,295,C,86.48762536431823,28.819001011714917,4.3243812682159115,0.452687809311002,D,455,Incorrect
2,new_learn,18,296,B,35.03430774299504,89.6696535753013,1.7517153871497522,1.4085276246105414,D,284,Incorrect
2,new_learn,18,297,B,47.89799353856459,64.73761611058316,2.3948996769282296,1.0168960959196214,B,605,Correct
2,new_learn,18,298,B,31.636464363116094,76.12155915761745,1.5818232181558047,1.1957146551468592,C,271,Incorrect
2,new_learn,18,299,D,53.00053506905236,13.216503212109398,2.650026753452618,0.20760434698654393,B,303,Incorrect
2,new_learn,18,300,A,17.753053195544574,69.65971941329953,0.8876526597772286,1.0942123137997404,C,324,Incorrect
2,new_learn,18,301,A,37.029151886201504,70.5502576224796,1.8514575943100753,1.108200855278246,B,352,Incorrect
2,new_learn,18,302,A,15.794442994431275,62.95601996183885,0.7897221497215638,0.9889108490568264,B,325,Incorrect
2,new_learn,18,303,C,95.22560214488317,56.56559937463328,4.761280107244159,0.8885303572062565,C,310,Incorrect
2,new_learn,18,304,B,69.13108390613507,60.39481407353892,3.4565541953067536,0.9486795210417566,B,478,Correct
2,new_learn,18,305,B,43.791922016703985,60.1906454316175,2.189596100835199,0.9454724475139877,C,476,Incorrect
2,new_learn,18,306,C,68.15307120534696,46.460195352963346,3.4076535602673483,0.7297950420260814,A,294,Incorrect
2,new_learn,18,307,C,59.13111002391948,46.63002884050565,2.9565555011959743,0.7324627802100637,B,878,Correct
2,new_learn,18,308,B,29.9849028076445,89.61422492892761,1.499245140382225,1.4076569534693113,B,931,Incorrect
2,new_learn,18,309,B,65.60479043822666,62.11498879798034,3.2802395219113327,0.9756999624277367,A,261,Incorrect
2,new_learn,18,310,B,72.12421749588614,78.20882569179778,3.6062108747943067,1.228501361196183,B,382,Correct
2,new_learn,18,311,D,27.038824906262423,14.555196949477102,1.3519412453131212,0.22863249904014918,B,271,Incorrect
2,new_learn,18,312,A,28.918991120976873,39.26970081428626,1.4459495560488438,0.6168470179341542,D,539,Incorrect
2,new_learn,18,313,A,47.08074464299807,41.132409293457485,2.3540372321499037,0.6461063743038727,C,414,Correct
2,new_learn,18,314,C,85.48609337349178,53.35150867361515,4.274304668674589,0.8380435385348074,D,828,Incorrect
2,new_learn,18,315,C,69.2378905366341,29.43245335807772,3.461894526831705,0.462323896234306,C,271,Incorrect
2,new_learn,18,316,A,26.393184822171982,73.2099110155642,1.319659241108599,1.149978593082295,B,262,Incorrect
2,new_learn,18,317,B,32.68302648743381,90.8243695599562,1.6341513243716903,1.426665860882414,C,357,Correct
2,new_learn,18,318,D,27.984873267230714,22.061127849345148,1.3992436633615357,0.34653538590703953,B,487,Incorrect
2,new_learn,18,319,A,45.47437495327411,60.82651209750887,2.2737187476637053,0.9554606177451228,A,262,Correct
2,new_learn,18,320,C,62.06782390098992,33.74978154535849,3.1033911950494963,0.530140328815793,D,1172,Incorrect
2,new_learn,18,321,A,20.778875431467796,42.2098687991093,1.0389437715733898,0.663031068641354,D,567,Incorrect
2,new_learn,18,322,B,43.23633505020849,87.56420886041795,2.161816752510424,1.3754553763664565,C,309,Incorrect
2,new_learn,18,323,A,45.87712800328591,34.75252827180488,2.293856400164296,0.5458914375618689,C,685,Incorrect
2,new_learn,18,324,D,52.745281232153516,8.208378953548063,2.6372640616076755,0.12893691509173835,C,336,Incorrect
2,new_learn,18,325,A,38.664038023260744,32.49300406138025,1.933201901163037,0.5103989142614775,D,538,Incorrect
2,new_learn,18,326,B,54.848422636826186,52.66432870554306,2.742421131841309,0.8272493408378608,B,647,Correct
2,new_learn,18,327,A,15.054931576550901,60.50880977487122,0.7527465788275451,0.9504701613309883,D,814,Incorrect
2,new_learn,18,328,D,39.52264039604013,5.868410373027384,1.9761320198020065,0.09218077458076483,B,1101,Incorrect
2,new_learn,18,329,D,36.12456437930902,28.755887819527278,1.806228218965451,0.4516964296063955,C,415,Incorrect
2,new_learn,18,330,A,31.758424979003397,58.64149755597161,1.58792124895017,0.921138489586721,D,293,Incorrect
2,new_learn,18,331,B,30.085649754187596,57.214878159652855,1.50428248770938,0.8987292045120026,C,276,Incorrect
2,new_learn,18,332,A,41.377470401634056,41.95426066274845,2.068873520081703,0.6590159854244089,B,319,Incorrect
2,new_learn,18,333,B,64.63172642622685,92.8266006574153,3.2315863213113425,1.4581168334152466,A,510,Incorrect
2,new_learn,18,334,B,49.793721289704735,84.41363748415888,2.4896860644852365,1.3259663169151275,B,346,Correct
2,new_learn,18,335,D,71.56035026820828,23.833716275709243,3.5780175134104137,0.37437913979755827,C,670,Incorrect
2,new_learn,18,336,B,56.31507745617073,69.20941902497876,2.8157538728085365,1.0871390118404547,B,405,Incorrect
2,new_learn,18,337,B,48.42638476096011,83.06272111424862,2.4213192380480053,1.3047461721985063,B,271,Correct
2,new_learn,18,338,D,58.68162134708572,40.05187715122912,2.9340810673542865,0.6291334151039115,B,237,Incorrect
2,new_learn,18,339,D,55.724974822589154,50.87339050061642,2.7862487411294574,0.7991173492997067,C,261,Incorrect
2,new_learn,18,340,C,75.46031927519552,76.42770597648311,3.7730159637597755,1.2005235981322004,B,599,Incorrect
2,new_learn,18,341,A,14.013392620082776,28.102222959912055,0.7006696310041388,0.44142868600201063,D,331,Incorrect
2,new_learn,18,342,B,69.23711429957373,85.17040709452786,3.4618557149786864,1.3378536261571037,B,325,Correct
2,new_learn,18,343,B,63.11099271748628,67.80185411996915,3.1555496358743143,1.0650290340153097,B,319,Incorrect
2,new_learn,18,344,A,20.769239328933295,74.11546509905264,1.0384619664466648,1.1642030033628725,B,235,Incorrect
2,new_learn,18,345,C,76.66138596370823,40.85623209949316,3.833069298185411,0.641768193085636,B,256,Incorrect
2,new_learn,18,346,C,55.247541598059,36.3201048365677,2.76237707990295,0.570514872660861,B,261,Incorrect
2,new_learn,18,347,D,27.399125039017818,17.750545252402524,1.3699562519508908,0.27882491281080474,B,286,Incorrect
2,new_learn,18,348,B,64.99995335404641,77.5368757946285,3.2499976677023206,1.2179463968935458,C,277,Incorrect
2,new_learn,18,349,C,69.85549519915465,50.59597830197135,3.492774759957732,0.7947597686733089,D,199,Correct
2,new_learn,18,350,B,58.82296894536356,96.84138207201833,2.941148447268178,1.5211808724046756,C,532,Incorrect
2,new_learn,18,351,B,46.40814782229714,58.858013478537806,2.320407391114857,0.924539513745317,C,288,Incorrect
2,new_learn,18,352,C,54.00807816833888,64.02648923735069,2.7004039084169444,1.0057257411160343,C,173,Incorrect
2,new_learn,18,353,A,31.398808665207632,56.36921444194476,1.5699404332603817,0.8854455498972066,B,261,Incorrect
2,new_learn,18,354,C,89.59978906178677,59.14976975944336,4.479989453089338,0.9291224106889747,B,556,Incorrect
2,new_learn,18,355,B,60.47597227546061,98.00062822601582,3.023798613773031,1.5393902684101792,C,5511,Incorrect
2,new_learn,18,356,C,81.09578577991996,70.52795855706248,4.054789288995998,1.1078505823777645,D,340,Incorrect
2,new_learn,18,357,B,49.936190463233174,73.76721704383624,2.4968095231616587,1.1587327357033985,C,334,Incorrect
2,new_learn,18,358,B,36.97969889386414,93.27000596745901,1.848984944693207,1.465081827738227,C,728,Incorrect
2,new_learn,18,359,C,66.67530657400721,67.27670464983349,3.3337653287003604,1.056780005428236,B,283,Incorrect
2,new_learn,18,360,A,6.01177253604553,59.02952348436371,0.3005886268022765,0.9272335866169159,B,300,Incorrect
2,new_learn,18,361,C,65.99751850810938,31.91428117544838,3.299875925405469,0.5013083564269384,B,1774,Incorrect
2,new_learn,18,362,B,63.289973659730265,82.86530379762623,3.164498682986513,1.3016451482405447,C,277,Incorrect
2,new_learn,18,363,B,49.60474873940794,77.63970945655785,2.480237436970397,1.2195617042778406,C,287,Incorrect
2,new_learn,18,364,C,61.94926330131399,41.17837132876729,3.097463165065699,0.6468283442662395,B,261,Incorrect
2,new_learn,18,365,A,10.494822246322022,32.336745300344575,0.5247411123161011,0.507944407382834,B,293,Incorrect
2,new_learn,18,366,D,32.69889354808325,12.427413822180737,1.6349446774041625,0.19520935983441629,B,292,Correct
2,new_learn,18,367,B,32.60981612933241,84.03332774788117,1.6304908064666206,1.319992425547234,D,272,Incorrect
2,new_learn,18,368,A,20.10285162199992,40.79558970104721,1.005142581099996,0.6408156245183667,D,452,Incorrect
2,new_learn,18,369,C,76.73922059705522,26.87788167201948,3.836961029852761,0.42219677802436073,B,236,Incorrect
2,new_learn,18,370,A,4.210103040241279,54.682576943389535,0.21050515201206393,0.8589519100235556,A,112,Incorrect
2,new_learn,18,371,D,61.75327356838691,37.23906878180401,3.087663678419345,0.5849499245572024,C,358,Incorrect
2,new_learn,18,372,D,45.358294110524284,31.333423462104392,2.2679147055262145,0.49218426480182614,C,307,Incorrect
2,new_learn,18,373,D,47.855599201751545,10.196913308198786,2.3927799600875774,0.1601727396916465,C,327,Correct
2,new_learn,18,374,C,94.39244728414069,32.169664843543515,4.7196223642070345,0.5053199137046107,B,285,Incorrect
2,new_learn,18,375,A,16.57387998295288,64.71766558791428,0.8286939991476442,1.0165827138423622,B,291,Incorrect
2,new_learn,18,376,C,83.80342253166144,66.45916719659162,4.190171126583072,1.0439381571425401,B,294,Incorrect
2,new_learn,18,377,A,43.35940520325601,48.577847641572845,2.1679702601628006,0.7630590463898475,B,616,Incorrect
2,new_learn,18,378,A,41.88384138511334,70.37424806888741,2.094192069255667,1.1054361036756117,B,301,Incorrect
2,new_learn,18,379,D,72.99531492248826,34.28223367482765,3.6497657461244133,0.5385040673074358,A,261,Incorrect
2,new_learn,18,380,C,85.35653297356168,34.62015512750227,4.267826648678084,0.5438121250735007,D,237,Incorrect
2,new_learn,18,381,C,70.68479494649485,47.22198150962417,3.534239747324742,0.7417611509929417,D,230,Incorrect
2,new_learn,18,382,B,62.74642684386629,73.87338994033271,3.1373213421933146,1.160400495661617,D,277,Incorrect
2,new_learn,18,383,C,72.9915953420305,41.603173227609666,3.6495797671015247,0.6535011168894105,B,260,Incorrect
2,new_learn,18,384,D,49.95362589667107,40.696211392125136,2.4976812948335536,0.6392545936921878,C,263,Correct
2,new_learn,18,385,A,18.616217324835958,73.77333464210108,0.9308108662417979,1.1588288307122305,B,318,Correct
2,new_learn,18,386,D,29.972904902338186,11.001683219545505,1.4986452451169094,0.1728140358982313,C,307,Incorrect
2,new_learn,18,387,D,42.09401840274923,16.026456159966923,2.104700920137461,0.25174298467615486,C,456,Correct
2,new_learn,18,388,C,89.00078712006801,64.39520617335883,4.4500393560034,1.011517533203121,D,483,Incorrect
2,new_learn,18,389,B,34.80283217219812,75.49830168854783,1.7401416086099062,1.1859245497162385,C,511,Incorrect
2,new_learn,18,390,A,47.59775647343745,49.6474015933196,2.3798878236718726,0.7798595605769753,C,325,Incorrect
2,new_learn,18,391,D,72.85000319414458,31.971579638537417,3.642500159707229,0.5022083985804509,D,360,Incorrect
2,new_learn,18,392,A,37.0184712851686,61.91302876027231,1.85092356425843,0.9725275815738255,B,477,Incorrect
2,new_learn,18,393,D,41.290458000250105,31.09145735608636,2.064522900012505,0.48838347009640615,D,238,Incorrect
2,new_learn,18,394,D,30.49211768465645,18.781201221532278,1.5246058842328225,0.2950144189157873,C,326,Incorrect
2,new_learn,18,395,B,72.53888637803325,65.71636796187424,3.6269443189016624,1.0322702940481387,B,278,Incorrect
2,new_learn,18,396,B,41.6063415577464,56.51111376818697,2.0803170778873197,0.8876744993015662,C,298,Incorrect
2,new_learn,18,397,A,5.736436536337745,45.62920536252399,0.2868218268168873,0.7167418817802269,A,286,Incorrect
2,new_learn,18,398,A,46.92317211227163,36.98115300140907,2.3461586056135815,0.5808985929525343,B,303,Incorrect
2,new_learn,18,399,D,24.57738396565649,28.696040586114588,1.2288691982828246,0.4507563514622607,C,230,Incorrect
2,new_learn,18,400,A,12.859203642430883,46.80587598633933,0.642960182121544,0.7352249807175928,A,102,Incorrect
2,new_learn,18,401,B,29.425114656965718,63.133223707349075,1.4712557328482858,0.9916943589822441,D,236,Incorrect
2,new_learn,18,402,D,67.01430750180825,5.396676483038551,3.3507153750904126,0.08477079596457357,B,319,Incorrect
2,new_learn,18,403,A,41.78362994721448,57.093114543683186,2.089181497360724,0.8968165461049783,D,285,Correct
2,new_learn,18,404,D,72.79081271265821,16.3160716007085,3.63954063563291,0.2562922533811544,D,412,Correct
2,new_learn,18,405,C,79.57273255266276,29.685755544762156,3.9786366276331377,0.4663027576784363,D,341,Incorrect
2,new_learn,18,406,A,39.36715534188086,52.41798778967146,1.9683577670940429,0.8233798267799567,D,448,Incorrect
2,new_learn,18,407,A,27.829108302776145,39.036910409483234,1.3914554151388072,0.6131903548063772,B,331,Incorrect
2,new_learn,18,408,A,10.648707237200208,69.32072719154701,0.5324353618600104,1.0888874364323315,C,312,Incorrect
2,new_learn,18,409,D,45.18927465505995,22.839481198775417,2.259463732752997,0.35876173172937526,B,349,Incorrect
2,new_learn,18,410,A,42.82070987236692,48.40884338935472,2.141035493618346,0.760404333803878,D,275,Incorrect
2,new_learn,18,411,B,52.18628427411622,58.00092100928509,2.609314213705811,0.9110763367210596,D,368,Incorrect
2,new_learn,18,412,B,74.95595896683668,66.80635102659514,3.7477979483418333,1.0493917079914612,D,2284,Incorrect
2,new_learn,18,413,D,39.08532407858981,47.94900867486203,1.9542662039294902,0.7531812669992989,B,325,Incorrect
2,new_learn,18,414,B,66.94570594613432,79.5710250198059,3.3472852973067164,1.2498987382041593,A,5667,Incorrect
2,new_learn,18,415,B,72.26267229311362,65.92589364776559,3.613133614655681,1.0355615158258118,D,1502,Incorrect
2,new_learn,18,416,D,51.61473582482408,31.472581089084763,2.580736791241204,0.49437014769488874,D,327,Correct
2,new_learn,18,417,C,64.4779114940791,52.69599980662904,3.2238955747039544,0.8277468293303747,D,607,Incorrect
2,new_learn,18,418,D,38.819432582350316,18.710306788634142,1.9409716291175159,0.2939008117679213,D,9940,Correct
2,new_learn,18,419,B,49.73771711815588,96.54875794847862,2.486885855907794,1.5165843434207982,C,268,Incorrect
2,new_learn,18,420,B,34.658471788183725,57.512443333076405,1.7329235894091863,0.9034033473259606,C,261,Correct
2,new_learn,18,421,C,96.39851787357884,39.77723002690805,4.819925893678942,0.6248192681634284,D,272,Incorrect
2,new_learn,18,422,A,5.7753636464400735,42.70740145672807,0.2887681823220037,0.6708462933518347,D,275,Incorrect
2,new_learn,18,423,C,72.48609602141664,41.08505841989768,3.6243048010708323,0.6453625885212901,D,61,Incorrect
2,new_learn,18,424,A,50.742870564854954,56.13034432466513,2.5371435282427477,0.8816933868691675,D,1023,Incorrect
2,new_learn,18,425,A,27.98998377370294,46.754364652581984,1.3994991886851469,0.7344158425790493,D,339,Incorrect
2,new_learn,18,426,D,50.52269786579649,19.800281813431866,2.526134893289824,0.3110220994204257,D,358,Correct
2,new_learn,18,427,D,56.6854831805775,34.13134895271034,2.834274159028875,0.5361339756347223,A,295,Correct
2,new_learn,18,428,A,19.728291043041473,56.080687467133785,0.9864145521520737,0.8809133787750635,D,190,Incorrect
2,new_learn,18,429,D,70.72651597082915,27.144377289568418,3.5363257985414576,0.4263828813958887,A,256,Incorrect
2,new_learn,18,430,B,71.99378284506311,60.48251066336731,3.599689142253155,0.9500570558535053,D,436,Incorrect
2,new_learn,18,431,C,66.8803253026688,69.45320886739384,3.3440162651334395,1.0909684537302098,B,291,Incorrect
2,new_learn,18,432,C,81.24033800898891,55.929053734542435,4.062016900449446,0.8785315216733365,D,303,Incorrect
2,new_learn,18,433,A,6.142175067301352,43.36436185859926,0.3071087533650676,0.6811658032129244,A,287,Incorrect
2,new_learn,18,434,A,26.61523373510564,44.45040741632506,1.330761686755282,0.6982253669410005,C,276,Incorrect
2,new_learn,18,435,B,68.40768088271606,71.1733386092344,3.4203840441358033,1.117988188531148,B,263,Incorrect
2,new_learn,18,436,B,46.13974543764239,70.30401773622901,2.3069872718821194,1.104332928189918,B,119,Correct
2,new_learn,18,437,C,97.09570421422666,50.55690284637184,4.8547852107113325,0.7941459728520732,D,188,Incorrect
2,new_learn,18,438,B,48.313444075286455,67.72115726351115,2.4156722037643226,1.0637614507582283,B,148,Incorrect
2,new_learn,18,439,A,41.04534184568527,38.033841358129436,2.0522670922842634,0.5974341829924954,A,285,Incorrect
2,new_learn,18,440,D,65.62485242157976,12.242535192665747,3.281242621078988,0.19230529311296604,C,198,Incorrect
2,new_learn,18,441,B,56.16987371170631,65.35035971988411,2.808493685585315,1.026521050027191,B,59,Incorrect
2,new_learn,18,442,A,28.916233872785828,26.61878394113699,1.4458116936392915,0.41812688038484963,D,448,Incorrect
2,new_learn,18,443,C,92.43764529382064,61.28008461734427,4.621882264691032,0.9625853182260483,B,347,Incorrect
2,new_learn,18,444,A,41.2601617055087,54.77496965584894,2.063008085275435,0.8604032113570944,A,271,Incorrect
2,new_learn,18,445,A,29.84911296078694,30.9336681853467,1.4924556480393472,0.4859049235983475,A,323,Correct
2,new_learn,18,446,A,21.040298446512367,41.17377012385985,1.0520149223256183,0.6467560687085651,C,374,Incorrect
2,new_learn,18,447,C,60.52208155793787,72.55313321825523,3.0261040778968935,1.139661951566961,B,299,Incorrect
2,new_learn,18,448,B,55.9415157954732,93.36574892736644,2.79707578977366,1.4665857546356174,B,317,Correct
2,new_learn,18,449,B,46.34447127774193,79.07381304675266,2.317223563887097,1.2420885507950543,C,278,Correct
2,new_learn,18,450,D,42.892991838097814,18.509843418678738,2.1446495919048907,0.2907519405160925,A,284,Incorrect
2,new_learn,18,451,D,57.36560290546419,21.385741008372882,2.86828014527321,0.3359264342173911,D,391,Incorrect
2,new_learn,18,452,B,57.652503709848894,90.72073660769105,2.882625185492445,1.4250379982748842,A,293,Correct
2,new_learn,18,453,A,31.03406746186928,69.30795416209747,1.551703373093464,1.0886867981549178,B,246,Incorrect
2,new_learn,18,454,D,55.788384146152445,4.690311988198619,2.7894192073076223,0.07367524842584458,D,307,Incorrect
2,new_learn,18,455,C,60.999155068946145,54.62263047470358,3.0499577534473072,0.8580102730953936,D,185,Incorrect
2,new_learn,18,456,D,53.56810384180869,3.0839191792777605,2.678405192090435,0.048442089189418384,C,259,Incorrect
2,new_learn,18,457,C,68.4946550778211,61.580304147983995,3.424732753891055,0.9673011555856579,A,246,Incorrect
2,new_learn,18,458,C,57.14877408502757,42.965493925051454,2.8574387042513787,0.6749004003639928,B,268,Correct
2,new_learn,18,459,C,62.86238782761262,70.26707079440783,3.143119391380631,1.1037525669849277,D,198,Incorrect
2,new_learn,18,460,B,57.35764413895244,94.66413516601845,2.8678822069476215,1.4869807579799743,B,405,Correct
2,new_learn,18,461,C,62.805960484602366,55.049255234834575,3.140298024230118,0.8647116791567289,C,2521,Incorrect
2,new_learn,18,462,D,46.56188548737452,13.86625523106277,2.328094274368726,0.21781062783353916,B,502,Incorrect
2,new_learn,18,463,A,28.087347533462122,50.168665543117726,1.4043673766731062,0.7880475555533102,B,316,Incorrect
2,new_learn,18,464,C,62.24277032852098,65.81475196906973,3.1121385164260493,1.0338157064193192,D,309,Incorrect
2,new_learn,18,465,C,65.94924953676873,69.69734681317102,3.2974624768384366,1.0948033636147905,D,479,Incorrect
2,new_learn,18,466,B,66.09085152347895,94.63734133519566,3.3045425761739473,1.4865598814696015,C,523,Incorrect
2,new_learn,18,467,C,92.58115035227786,36.74912332230517,4.629057517613893,0.5772538792760962,C,479,Incorrect
2,new_learn,18,468,A,31.16037602059259,25.583692061312238,1.5580188010296294,0.4018676951576103,D,1190,Incorrect
2,new_learn,18,469,B,67.69262022903308,67.5003991113077,3.384631011451654,1.0602937898123161,C,549,Incorrect
2,new_learn,18,470,C,85.93682587069513,54.8662067713785,4.296841293534757,0.8618363606165064,D,528,Incorrect
2,new_learn,18,471,A,15.710742189029917,44.590052767355814,0.7855371094514959,0.7004189109855312,B,636,Incorrect
2,new_learn,18,472,D,65.31243601157075,15.717443370312758,3.2656218005785376,0.24688902312694083,B,1094,Correct
2,new_learn,18,473,B,41.780149145120916,57.06208219551752,2.0890074572560455,0.8963290911198739,D,1101,Incorrect
2,new_learn,18,474,D,56.979182861429265,41.942033621055934,2.848959143071463,0.6588239235026271,B,910,Incorrect
2,new_learn,18,475,C,71.42017110789745,28.781720090817522,3.5710085553948723,0.45210220197495044,B,863,Incorrect
2,new_learn,18,476,A,46.23168892155534,65.48532388555903,2.311584446077767,1.0286410621841022,D,691,Incorrect
2,new_learn,18,477,C,71.47660452538483,27.63560493640961,3.573830226269241,0.43409906722867125,A,496,Incorrect
2,new_learn,18,478,A,19.845136718163292,44.44979006709587,0.9922568359081646,0.6982156696419847,B,885,Incorrect
2,new_learn,18,479,B,55.35115936881351,71.22225201581202,2.7675579684406757,1.1187565185249793,B,663,Correct
2,new_learn,18,480,C,59.547156008159625,67.27429966140664,2.9773578004079813,1.056742227958367,C,2063,Incorrect
2,new_learn,18,481,B,49.38019087385498,68.66610869254991,2.469009543692749,1.0786047130955652,B,780,Incorrect
2,new_learn,18,482,B,60.33012485965495,96.46735061068921,3.0165062429827474,1.5153055999490603,C,312,Incorrect
2,new_learn,18,483,D,42.263410226290496,41.71889612385837,2.1131705113145247,0.6553188878929459,C,527,Correct
2,new_learn,18,484,B,35.422970799930425,88.29453740361933,1.7711485399965212,1.3869273502965986,D,15921,Correct
2,new_learn,18,485,D,60.298411840738616,43.792662577935346,3.014920592036931,0.6878935351798916,D,502,Correct
2,new_learn,18,486,A,16.952363566690774,32.959418674404816,0.8476181783345388,0.5177253378705021,B,344,Incorrect
2,new_learn,18,487,C,80.41028335266319,58.567905934658036,4.020514167633159,0.9199825151022988,C,326,Incorrect
2,new_learn,18,488,D,54.89195269435508,29.50005171648896,2.7445976347177545,0.46338572876520345,B,285,Incorrect
2,new_learn,18,489,C,68.82069448148769,30.951293439988934,3.4410347240743846,0.4861817804508559,B,491,Incorrect
2,new_learn,18,490,C,73.17337576763533,43.32943362612246,3.6586687883817666,0.6806171518201642,D,381,Incorrect
2,new_learn,18,491,C,91.90419388456473,69.58648242500335,4.595209694228236,1.093061909877729,D,1094,Incorrect
2,new_learn,18,492,B,57.536449847889585,81.75490132344142,2.876822492394479,1.28420298696341,B,357,Correct
2,new_learn,18,493,D,44.407725383780424,3.170770548574964,2.2203862691890213,0.04980634730810994,C,516,Incorrect
2,new_learn,18,494,D,56.173262594331696,33.030649302770684,2.8086631297165847,0.518844225964426,A,344,Incorrect
2,new_learn,18,495,C,84.67461982968359,74.09691571404579,4.23373099148418,1.1639116303045418,C,247,Incorrect
2,new_learn,18,496,D,49.689696924705245,45.69451579588454,2.484484846235262,0.7177677756684683,B,309,Incorrect
2,new_learn,18,497,B,33.51825499313507,83.74983274202687,1.6759127496567539,1.3155392964086277,C,263,Incorrect
2,new_learn,18,498,A,17.64140990746052,35.696560673079226,0.882070495373026,0.5607202638448401,D,275,Incorrect
2,new_learn,18,499,A,27.603781868929246,43.57276201162981,1.3801890934464622,0.6844393451617632,B,262,Incorrect
2,new_learn,18,500,C,78.92634076317312,72.78482667764676,3.946317038158656,1.1433013839165072,C,232,Incorrect
2,new_learn,18,501,A,25.906692124383728,57.42080670148293,1.2953346062191864,0.9019639224828917,C,284,Incorrect
2,new_learn,18,502,C,73.72792727126418,52.89805073089,3.686396363563209,0.830920637826921,B,293,Correct
2,new_learn,18,503,C,62.46660950666917,67.39937230915662,3.1233304753334585,1.0587068645150488,C,260,Correct
2,new_learn,18,504,B,45.018166664016675,62.14004799509272,2.250908333200834,0.9760935913755023,B,255,Incorrect
2,new_learn,18,505,B,31.71107537281818,75.49793709408446,1.5855537686409091,1.1859188226798003,C,222,Incorrect
2,new_learn,18,506,D,27.07748902065272,33.873318793936775,1.353874451032636,0.5320808473786842,C,237,Incorrect
2,new_learn,18,507,C,84.9744113284192,26.994419828133235,4.2487205664209595,0.42402735509991013,D,254,Incorrect
2,new_learn,18,508,C,54.05841384372546,41.146361577576904,2.7029206921862734,0.6463255362703246,D,340,Incorrect
2,new_learn,18,509,B,68.14575464894199,55.77403507020402,3.4072877324470996,0.876096494188062,D,264,Incorrect
2,new_learn,18,510,B,58.82332872079243,86.0386537981645,2.9411664360396217,1.3514920134853456,D,278,Incorrect
2,new_learn,18,511,C,87.44174529793152,63.582740419103345,4.372087264896575,0.9987553509788094,C,308,Incorrect
2,new_learn,18,512,C,58.005287892361764,53.736760562623715,2.9002643946180884,0.8440950610562619,D,271,Incorrect
2,new_learn,18,513,B,54.15598191969238,84.64704626523695,2.7077990959846194,1.3296326934747187,C,254,Incorrect
2,new_learn,18,514,C,73.0171999665498,36.69581436711297,3.65085999832749,0.5764165041660845,C,100,Incorrect
2,new_learn,18,515,B,71.02624021702296,61.67118013227423,3.5513120108511482,0.9687286322088278,B,399,Incorrect
2,new_learn,18,516,B,62.015794150529004,94.03860996336596,3.1007897075264506,1.477155031073532,C,270,Incorrect
2,new_learn,18,517,B,59.123720283349925,67.513732296662,2.9561860141674963,1.0605032269981065,C,61,Incorrect
2,new_learn,18,518,A,0.3701411282908431,43.16485790930844,0.018507056414542155,0.6780320025056532,C,670,Correct
2,new_learn,18,519,A,31.18204817408354,43.821215082150374,1.5591024087041772,0.6883420368673093,C,278,Incorrect
2,new_learn,18,520,C,63.300580923544196,39.76567712325567,3.1650290461772097,0.6246377955772185,D,243,Incorrect
2,new_learn,18,521,D,47.79864462058184,1.2857654867378159,2.3899322310290922,0.020196757036874135,C,120,Incorrect
2,new_learn,18,522,D,60.70623156740483,35.30907932984495,3.035311578370241,0.5546337211383006,C,277,Correct
2,new_learn,18,523,B,53.587969056834304,86.56809219420607,2.679398452841715,1.3598084123630085,C,309,Incorrect
2,new_learn,18,524,C,81.67295518412412,57.13101046384498,4.083647759206206,0.897411813826885,B,264,Incorrect
2,new_learn,18,525,D,45.40084805579721,21.165723091451557,2.2700424027898607,0.33247040086010027,B,307,Correct
2,new_learn,18,526,A,11.675941168764469,49.9624414446264,0.5837970584382234,0.7848081949892424,D,247,Correct
2,new_learn,18,527,D,49.958274099777,33.84398357767143,2.49791370498885,0.5316200508791309,B,293,Incorrect
2,new_learn,18,528,B,61.47411459087522,66.12494036991978,3.073705729543761,1.0386881344260155,C,286,Incorrect
2,new_learn,18,529,A,23.017640158946158,57.278968346769766,1.1508820079473079,0.8997359308170709,C,213,Incorrect
2,new_learn,18,530,D,54.488839420032186,39.41393696847233,2.724441971001609,0.6191126741460191,C,301,Correct
2,new_learn,18,531,C,79.63330958353532,63.05351884275675,3.9816654791767663,0.990442357896951,C,300,Incorrect
2,new_learn,18,532,B,58.809975325847766,70.538366983921,2.9404987662923885,1.108014077564535,D,261,Incorrect
2,new_learn,18,533,D,66.86047364872763,11.115060827517071,3.3430236824363817,0.1745949671996566,C,260,Incorrect
2,new_learn,18,534,D,64.71382791925474,37.41770806051155,3.2356913959627374,0.5877559837853533,D,61,Incorrect
2,new_learn,18,535,A,12.491657263916448,42.26207891947467,0.6245828631958225,0.6638511832942684,C,168,Incorrect
2,new_learn,18,536,B,24.565968073790334,76.45798175533811,1.2282984036895166,1.200999168954363,D,52,Incorrect
2,new_learn,18,537,A,49.53419315853927,42.5577594897011,2.476709657926963,0.6684957228304313,B,383,Incorrect
2,new_learn,18,538,B,58.07381481132436,98.05450333974193,2.903690740566218,1.5402365367176454,D,61,Incorrect
2,new_learn,18,539,A,13.362909230854044,53.08869407618539,0.6681454615427022,0.8339152564921,D,260,Incorrect
2,new_learn,18,540,A,13.18263349133523,64.12057147216993,0.6591316745667615,1.0072035814047415,B,264,Incorrect
2,new_learn,18,541,B,50.71448409494018,52.972046071893054,2.535724204747009,0.8320829539253964,D,244,Correct
2,new_learn,18,542,C,55.18197500960014,38.8734490804769,2.759098750480007,0.6106227102546157,B,239,Incorrect
2,new_learn,18,543,D,28.28708182005286,39.20176924378028,1.414354091002643,0.6157799513199121,C,252,Incorrect
2,new_learn,18,544,A,21.786446136320382,24.36310893946379,1.0893223068160192,0.3826948203141363,B,45,Incorrect
2,new_learn,18,545,D,57.87665578019672,21.2050075418055,2.8938327890098363,0.33308747956326157,D,279,Incorrect
2,new_learn,18,546,B,39.98732321289499,60.98102128463126,1.9993661606447495,0.9578876423810019,B,21,Incorrect
2,new_learn,18,547,A,26.604873840464663,76.18523780158245,1.3302436920232332,1.1967149169472142,D,197,Incorrect
2,new_learn,18,548,D,28.921731565750594,36.124075761280395,1.4460865782875296,0.5674356551467981,B,367,Correct
2,new_learn,18,549,B,26.40307116268502,64.9915039139979,1.320153558134251,1.0208841562098405,C,269,Incorrect
2,new_learn,18,550,D,72.67087590250475,16.460645071597263,3.633543795125237,0.258563208151395,C,30,Incorrect
2,new_learn,18,551,C,85.05125186842264,51.321658236399294,4.252562593421132,0.8061587224275907,C,389,Correct
2,new_learn,18,552,B,51.18009670683648,90.59893375502851,2.559004835341824,1.4231247235393296,D,255,Incorrect
2,new_learn,18,553,D,53.125547280577514,46.9493185644523,2.6562773640288757,0.7374781714656512,B,181,Incorrect
2,new_learn,18,554,A,20.18956858864357,62.84975845698865,1.0094784294321786,0.9872416972418425,B,382,Incorrect
2,new_learn,18,555,C,92.05167605340223,59.79722601209091,4.602583802670112,0.9392926297231665,D,252,Correct
2,new_learn,18,556,D,51.178895295097206,47.66816810481831,2.5589447647548607,0.7487698336409023,B,253,Incorrect
2,new_learn,18,557,C,63.71211872314478,69.4383486578662,3.185605936157239,1.0907350301047956,B,240,Incorrect
2,new_learn,18,558,B,74.3112576542403,69.43650812640215,3.715562882712015,1.0907061191041647,B,21,Correct
2,new_learn,18,559,D,57.196950076398416,34.378624289732855,2.8598475038199207,0.5400181675457418,C,189,Incorrect
2,new_learn,18,560,B,69.16931364460598,75.4762438525018,3.458465682230299,1.1855780660378572,D,29,Incorrect
2,new_learn,18,561,C,62.93850467422955,62.77954862094781,3.1469252337114773,0.9861388437162643,B,216,Incorrect
2,new_learn,18,562,D,46.50119550812721,-0.14218878091900677,2.3250597754063604,-0.0022334961477902013,A,278,Correct
2,new_learn,18,563,D,58.000235195547525,18.176519481241392,2.9000117597773762,0.28551610035049857,B,285,Incorrect
2,new_learn,18,564,A,26.897900571273922,72.45754917255971,1.344895028563696,1.138160520888174,B,485,Incorrect
2,new_learn,18,565,D,31.166226115361546,30.613214313815597,1.5583113057680773,0.48087124595526487,B,239,Incorrect
2,new_learn,18,566,B,49.77294128442046,89.61449753909898,2.488647064221023,1.4076612356198699,C,244,Incorrect
2,new_learn,18,567,D,55.56907181607593,-0.05484441755172753,2.778453590803797,-0.0008614940963545916,B,349,Incorrect
2,new_learn,18,568,A,16.802544921018647,50.739431443472085,0.8401272460509324,0.7970131253506744,B,277,Incorrect
2,new_learn,18,569,C,98.86368305027045,42.29417357865891,4.943184152513522,0.6643553250218319,B,280,Correct
2,new_learn,18,570,C,93.00553833577929,64.64159312900385,4.650276916788965,1.0153877704520946,B,244,Incorrect
2,new_learn,18,571,A,2.7279492595184145,55.67955913046164,0.13639746297592073,0.8746124695968839,C,286,Incorrect
2,new_learn,18,572,D,56.754182367084525,50.78559148164698,2.8377091183542262,0.7977382055347726,C,319,Incorrect
2,new_learn,18,573,B,32.03681351375655,86.51671782055756,1.6018406756878276,1.3590014255888239,A,310,Correct
2,new_learn,18,574,C,68.8314985402597,37.59163306337199,3.441574927012985,0.590487991341663,B,277,Correct
2,new_learn,18,575,C,97.94339500712245,39.303888127562345,4.897169750356122,0.6173840309953248,B,301,Incorrect
2,new_learn,18,576,B,64.42303562883379,85.64615582763855,3.221151781441689,1.3453266697815798,B,261,Incorrect
2,new_learn,18,577,C,75.87212946815998,32.151472450572975,3.793606473407999,0.5050341482640733,D,229,Incorrect
2,new_learn,18,578,D,23.757906005138263,22.214143608664923,1.1878953002569133,0.34893895183385193,C,271,Incorrect
2,new_learn,18,579,D,58.458535027549104,15.852277797652361,2.922926751377455,0.24900699735884618,C,310,Incorrect
2,new_learn,18,580,A,45.29068784905637,54.21089727776769,2.2645343924528185,0.8515427831617294,B,262,Correct
2,new_learn,18,581,A,42.63316361293698,38.29769837058993,2.1316581806468493,0.6015788392522156,B,310,Incorrect
2,new_learn,18,582,B,68.92396428865777,88.75840175570197,3.4461982144328887,1.3942137145004234,B,301,Incorrect
2,new_learn,18,583,B,68.67294618008643,65.00080947709056,3.433647309004322,1.0210303276530874,B,269,Correct
2,new_learn,18,584,D,32.83189595426106,40.102498798493656,1.641594797713053,0.6299285780797058,B,254,Correct
2,new_learn,18,585,D,41.71542176414374,32.15623621950696,2.085771088207187,0.5051089773715054,B,283,Incorrect
2,new_learn,18,586,C,72.47119111348614,68.191351738019,3.623559555674307,1.0711472482925901,B,87,Incorrect
2,new_learn,18,587,D,52.508512857751356,5.64216806770364,2.625425642887568,0.08862696875908338,B,5,Incorrect
2,new_learn,18,588,C,53.855148543506075,66.5105278775856,2.6927574271753034,1.0447449288330102,D,285,Incorrect
2,new_learn,18,589,A,33.560022627904594,56.68248506920824,1.6780011313952299,0.8903663934031888,C,479,Correct
2,new_learn,18,590,A,37.80966666826811,28.77647895982366,1.8904833334134055,0.4520198744818163,B,317,Incorrect
2,new_learn,18,591,D,56.875297142441575,19.649608721094527,2.8437648571220784,0.3086553320205225,B,312,Incorrect
2,new_learn,18,592,B,26.557373642359995,62.883833943336114,1.3278686821179997,0.987776953729726,B,28,Incorrect
2,new_learn,18,593,B,57.5169260207595,65.16473074286856,2.875846301037975,1.023605196874764,D,366,Incorrect
2,new_learn,18,594,A,21.885777746532174,50.05184934385825,1.0942888873266086,0.7862126109862408,B,382,Correct
2,new_learn,18,595,D,66.69629115654479,19.878973042810657,3.3348145578272397,0.31225817836101744,B,12670,Correct
2,new_learn,18,596,C,81.26889422547092,57.87259004056715,4.063444711273546,0.9090605185782978,B,299,Incorrect
2,new_learn,18,597,C,84.49067155917201,55.77305600603261,4.224533577958601,0.8760811150840208,B,263,Correct
2,new_learn,18,598,B,74.18804708236021,80.05924258243328,3.7094023541180103,1.2575676417446777,D,286,Incorrect
2,new_learn,18,599,C,67.94875082689724,59.65688776137264,3.3974375413448623,0.9370882016357954,A,252,Incorrect
2,new_learn,18,600,C,46.573169473221746,58.380769000888336,2.3286584736610876,0.9170429750205676,C,254,Correct
2,new_learn,18,601,A,67.19689960564435,43.7308964647918,3.3598449802822175,0.6869233153434289,B,3273,Incorrect
2,new_learn,18,602,D,76.63585862163757,40.184187364697905,3.8317929310818784,0.6312117390770536,C,316,Incorrect
2,new_learn,18,603,D,81.66503127731163,27.792380268068506,4.0832515638655815,0.4365616883796897,D,302,Correct
2,new_learn,18,604,D,62.39531568026875,26.861740528808138,3.119765784013438,0.42194323353969426,B,460,Incorrect
2,new_learn,18,605,A,46.00894708868164,21.710009727010394,2.3004473544340818,0.341020035338694,A,310,Correct
2,new_learn,18,606,B,27.896065554079907,35.64779436118194,1.3948032777039954,0.5599542444088441,D,326,Incorrect
2,new_learn,18,607,B,50.049011189415744,51.77678355239506,2.502450559470787,0.8133078141735657,D,287,Incorrect
2,new_learn,18,608,B,14.577252154815964,73.0486335964957,0.7288626077407981,1.1474452533076172,B,347,Correct
2,new_learn,18,609,C,37.88997932864402,69.25716238116753,1.894498966432201,1.0878889627257566,C,8269,Correct
2,new_learn,18,610,B,2.4227223474118382,49.850837966985694,0.1211361173705919,0.7830551316618869,A,336,Incorrect
2,new_learn,18,611,B,43.83136220565653,56.484855561848256,2.1915681102828266,0.8872620363609154,B,324,Correct
2,new_learn,18,612,C,30.220322400954913,86.19475325940886,1.5110161200477454,1.3539440180887186,C,301,Correct
2,new_learn,18,613,A,23.754552835096366,26.60491345448341,1.1877276417548182,0.4179090032899866,B,288,Incorrect
2,new_learn,18,614,D,92.89665785758248,42.5531700065959,4.644832892879124,0.6684236313983961,D,252,Correct
2,new_learn,18,615,B,16.576808482554966,67.87581220649732,0.8288404241277483,1.066190764921862,D,231,Incorrect
2,new_learn,18,616,B,23.315253533106507,66.33270265017984,1.1657626766553253,1.041951656692806,D,278,Incorrect
2,new_learn,18,617,D,89.94280531700949,40.475321287656826,4.497140265850475,0.6357848600449463,D,357,Correct
2,new_learn,18,618,A,67.44220526362776,8.60755333662615,3.372110263181388,0.13520713163863513,D,301,Incorrect
2,new_learn,18,619,D,95.04727847299472,42.055524645676506,4.752363923649736,0.6606066363486089,B,285,Incorrect
2,new_learn,18,620,D,71.14783822555611,39.938141239094115,3.557391911277806,0.6273468555738482,D,324,Correct
2,new_learn,18,621,C,41.1543125873704,62.778921926110506,2.05771562936852,0.9861289996167797,D,311,Incorrect
2,new_learn,18,622,D,83.95849929886123,73.6634418212775,4.197924964943061,1.1571026383193226,D,278,Correct
2,new_learn,18,623,C,71.05458833866487,63.76037939362912,3.5527294169332437,1.0015456974656163,D,380,Incorrect
2,new_learn,18,624,A,49.70252018885066,15.430898555857098,2.485126009442533,0.24238798770685005,D,293,Incorrect
2,new_learn,18,625,B,45.49257821644798,35.8749942402917,2.274628910822399,0.5635230917643828,C,304,Incorrect
2,new_learn,18,626,D,80.35190524411897,36.90554096709752,4.017595262205948,0.5797108818949536,C,308,Incorrect
2,new_learn,18,627,C,48.16427893262714,85.40028078080685,2.4082139466313572,1.3414644735774421,D,382,Incorrect
2,new_learn,18,628,D,77.46129243441769,61.05472564696724,3.8730646217208844,0.959045387797263,D,289,Correct
2,new_learn,18,629,B,3.3025736542197563,55.870433848973846,0.16512868271098782,0.8776107226640537,C,267,Incorrect
2,new_learn,18,630,B,17.234147968924738,30.405025764188572,0.8617073984462368,0.477601027864916,B,660,Correct
2,new_learn,18,631,D,66.13530769845259,71.71509504913625,3.3067653849226297,1.1264980787893009,A,968,Incorrect
2,new_learn,18,632,A,53.4004584000868,1.3040428679766691,2.67002292000434,0.02048385747000834,C,323,Incorrect
2,new_learn,18,633,C,34.56363437783955,87.6890882946882,1.7281817188919775,1.3774169779328957,A,615,Incorrect
2,new_learn,18,634,B,45.33843316869751,35.06684286639713,2.266921658434876,0.5508286796683043,D,964,Incorrect
2,new_learn,18,635,B,28.10125963636787,49.54386850387306,1.4050629818183935,0.7782332666109316,A,742,Incorrect
2,new_learn,18,636,B,44.02872883471804,38.96587942462503,2.201436441735902,0.6120746027053383,D,421,Incorrect
2,new_learn,18,637,B,20.712344624977078,51.20261242618798,1.0356172312488539,0.804288755213588,C,268,Incorrect
2,new_learn,18,638,A,68.03036584098902,26.04996290520193,3.401518292049451,0.4091918604463451,B,81,Incorrect
2,new_learn,18,639,D,63.07007175407331,71.1157784010349,3.1535035877036655,1.1170840348950546,B,275,Incorrect
2,new_learn,18,640,B,14.647552629733612,47.86361568130447,0.7323776314866807,0.7518399169931567,D,189,Incorrect
2,new_learn,18,641,D,55.562419698146115,37.470135121945226,2.778120984907306,0.5885795061406001,C,286,Incorrect
2,new_learn,18,642,D,61.01710092138219,53.25070113866189,3.0508550460691093,0.8364600574786293,B,277,Incorrect
2,new_learn,18,643,B,43.3768597859446,32.75537440166687,2.16884298929723,0.514520217929299,C,326,Incorrect
2,new_learn,18,644,B,13.595424899577505,50.357446207177134,0.6797712449788753,0.7910129152900542,C,169,Incorrect
2,new_learn,18,645,D,82.07608522117866,39.31724976821722,4.103804261058933,0.6175939151559311,C,52,Incorrect
2,new_learn,18,646,C,51.83193324421739,81.65793407550734,2.5915966622108693,1.2826798289946675,D,374,Incorrect
2,new_learn,18,647,B,36.29544265802532,68.57010529487638,1.814772132901266,1.077096695251311,D,1223,Incorrect
2,new_learn,18,648,B,21.357877991597608,54.09100364229215,1.0678938995798803,0.8496594983396188,D,293,Incorrect
2,new_learn,18,649,B,13.450830951590772,31.34743270983537,0.6725415475795385,0.49240432155059594,D,42,Incorrect
2,new_learn,18,650,D,74.97741778208892,34.49976896984729,3.748870889104446,0.5419211037310867,D,269,Correct
2,new_learn,18,651,B,28.166091539798803,74.05547123377134,1.4083045769899403,1.1632606219307315,D,279,Incorrect
2,new_learn,18,652,D,72.30110809995809,51.356504974703725,3.615055404997904,0.8067060937128844,C,286,Incorrect
2,new_learn,18,653,B,22.238814845465264,60.3854450268828,1.1119407422732632,0.9485323524010264,B,21,Correct
2,new_learn,18,654,A,37.058051896428324,47.1765676248349,1.8529025948214162,0.741047791358817,C,501,Incorrect
2,new_learn,18,655,A,31.185102254974584,15.167099051657164,1.559255112748729,0.23824423478477433,C,294,Incorrect
2,new_learn,18,656,B,41.06037180047141,55.773433366506445,2.0530185900235707,0.8760870426484826,D,325,Incorrect
2,new_learn,18,657,C,57.46876384608283,54.82794688620794,2.8734381923041417,0.8612353757456112,A,247,Incorrect
2,new_learn,18,658,D,76.78467550127309,69.82337569815934,3.8392337750636547,1.0967830207108873,D,101,Correct
2,new_learn,18,659,C,52.42287866908193,98.47835362432575,2.6211439334540967,1.5468943614189978,D,246,Incorrect
2,new_learn,18,660,D,56.421886126649696,48.046804010318446,2.821094306332485,0.7547174325364251,B,204,Incorrect
2,new_learn,18,661,A,54.226773862184174,38.20108712992025,2.7113386931092087,0.6000612734325054,B,273,Incorrect
2,new_learn,18,662,B,22.20121819202998,74.62893067403688,1.110060909601499,1.1722685017540813,D,572,Incorrect
2,new_learn,18,663,C,47.46940289768921,65.95254805561508,2.37347014488446,1.0359802022852407,D,254,Incorrect
2,new_learn,18,664,C,35.04987132127997,62.47548490595042,1.7524935660639986,0.9813626220499692,B,226,Incorrect
2,new_learn,18,665,C,40.65261274946718,55.00053544254179,2.032630637473359,0.8639463904489716,B,167,Incorrect
2,new_learn,18,666,A,72.57458375939721,18.937556325590254,3.628729187969861,0.2974704391470863,B,252,Incorrect
2,new_learn,18,667,D,67.86741169290588,51.17909878826035,3.393370584645294,0.803919403852725,B,292,Incorrect
2,new_learn,18,668,A,33.67610296323952,40.09365566117749,1.683805148161976,0.6297896704035701,D,249,Incorrect
2,new_learn,18,669,A,31.359317125749673,24.095227719584752,1.5679658562874836,0.378486951952103,C,219,Incorrect
2,new_learn,18,670,C,55.00215216392387,59.58304433493372,2.7501076081961937,0.9359282718057135,A,80,Incorrect
2,new_learn,18,671,D,60.2463754061574,71.16795485468964,3.01231877030787,1.117903620712515,D,229,Correct
2,new_learn,18,672,D,64.58719085044906,53.196471823823266,3.2293595425224533,0.8356082253930981,D,182,Correct
2,new_learn,18,673,B,8.085234755115337,36.3914036459142,0.40426173775576685,0.5716348317391244,D,189,Incorrect
2,new_learn,18,674,D,80.7089095501381,46.47128697114864,4.035445477506905,0.7299692687571182,B,100,Incorrect
2,new_learn,18,675,B,20.941021667585133,73.0899532851158,1.0470510833792566,1.1480943014587046,D,188,Incorrect
2,new_learn,18,676,D,101.44904517745411,48.21638117057149,5.072452258872705,0.7573811443407631,D,22,Correct
2,new_learn,18,677,B,3.4704209028994697,40.716935275903694,0.1735210451449735,0.6395801236973507,B,182,Correct
2,new_learn,18,678,A,32.53688550818589,37.54211581312306,1.6268442754092944,0.5897101761936231,B,285,Incorrect
2,new_learn,18,679,C,48.9306430206707,90.06269381360103,2.446532151033535,1.4147014862365797,C,150,Correct
2,new_learn,18,680,C,47.20235406308442,82.97337207549424,2.360117703154221,1.303342680779726,D,259,Incorrect
2,new_learn,18,681,A,25.990573520938373,20.287438046631507,1.2995286760469187,0.31867433163727804,D,63,Incorrect
2,new_learn,18,682,D,81.61428662915073,25.942549151975488,4.0807143314575365,0.4075046091561916,C,276,Incorrect
2,new_learn,18,683,C,34.345122509764,68.6572209829164,1.7172561254882002,1.0784651052791057,D,267,Incorrect
2,new_learn,18,684,B,21.449299069235572,70.25710944004467,1.0724649534617785,1.1035960943964922,D,240,Incorrect
2,new_learn,18,685,D,63.327029815184304,58.5343475267763,3.166351490759215,0.9194553808639616,D,291,Correct
2,new_learn,18,686,A,41.028397144629714,10.541617486454822,2.0514198572314855,0.16558734026200084,C,229,Incorrect
2,new_learn,18,687,A,30.08331671199959,15.100671726130493,1.5041658355999794,0.23720079679541328,C,305,Incorrect
2,new_learn,18,688,B,33.247790397127986,36.57425671288682,1.6623895198563992,0.574507080998562,D,322,Incorrect
2,new_learn,18,689,A,59.35509933902404,44.913209194704976,2.967754966951202,0.7054950402761335,B,288,Incorrect
2,new_learn,18,690,A,72.03491610380776,27.845442869169773,3.601745805190388,0.43739519376869024,C,347,Incorrect
2,new_learn,18,691,B,18.775440014588167,37.404156537964674,0.9387720007294084,0.5875431169669623,D,286,Incorrect
2,new_learn,18,692,D,66.56281891475733,32.931863546301386,3.328140945737866,0.5172925029304097,D,310,Correct
2,new_learn,18,693,C,32.68187771151801,76.68572443023648,1.6340938855759006,1.2045765425262112,C,358,Correct
2,new_learn,18,694,A,28.696139996850533,13.72001299945046,1.4348069998425268,0.21551346023115012,D,284,Incorrect
2,new_learn,18,695,B,41.36535625430535,33.40755206161842,2.068267812715267,0.5247646006559948,C,208,Incorrect
2,new_learn,18,696,A,56.43300622639507,21.08436512231674,2.8216503113197535,0.33119243286937566,D,284,Incorrect
2,new_learn,18,697,C,43.71968267016958,91.63441785505255,2.1859841335084793,1.4393900697470523,D,248,Incorrect
2,new_learn,18,698,B,34.589930274748575,58.74735319957909,1.7294965137374287,0.9228012661482125,B,339,Correct
2,new_learn,18,699,A,34.06597150963311,16.265353779697143,1.7032985754816554,0.2554955797116776,B,269,Incorrect
2,new_learn,18,700,C,60.66531528272267,56.94935282203906,3.0332657641361336,0.8945583422620553,D,294,Incorrect
2,new_learn,18,701,D,98.80550987587903,40.448115920080454,4.940275493793951,0.6353575191303655,D,294,Correct
2,new_learn,18,702,A,60.05722646759282,10.736265238125915,3.002861323379641,0.1686448599954392,C,292,Incorrect
2,new_learn,18,703,D,78.09266176430855,69.9651424796286,3.9046330882154274,1.0990098881068218,D,238,Correct
2,new_learn,18,704,B,34.77574157296253,47.43510713769924,1.7387870786481268,0.7451089205302034,D,247,Incorrect
2,new_learn,18,705,D,77.25709296676943,34.324644695138446,3.862854648338472,0.5391702580566341,B,243,Incorrect
2,new_learn,18,706,D,87.54632331579948,29.97542097554419,4.377316165789974,0.4708528116251551,B,278,Incorrect
2,new_learn,18,707,A,50.616121268784354,25.39298366441742,2.5308060634392175,0.39887205466429704,B,262,Incorrect
2,new_learn,18,708,A,65.7726338139976,36.018850061494135,3.2886316906998796,0.5657827737197111,B,134,Incorrect
2,new_learn,18,709,B,11.174331415431995,38.34179835358682,0.5587165707715998,0.6022715601652479,B,111,Correct
2,new_learn,18,710,D,88.60555559196825,61.21073713290487,4.430277779598413,0.9614960104877496,B,275,Incorrect
2,new_learn,18,711,A,28.345992602928906,20.866277498460665,1.4172996301464453,0.32776672048465016,B,246,Incorrect
2,new_learn,18,712,D,99.72400433047764,41.51262876803989,4.986200216523883,0.6520788478443721,B,243,Incorrect
2,new_learn,18,713,B,28.028531962468126,41.793823938771155,1.4014265981234064,0.6564958512573434,D,824,Incorrect
2,new_learn,18,714,A,71.35225602725366,15.891928508062,3.567612801362683,0.24962982926150892,B,235,Incorrect
2,new_learn,18,715,B,44.47655141944469,48.001153888883266,2.2238275709722344,0.7540003621057438,C,289,Incorrect
2,new_learn,18,716,A,56.807121033135665,50.11386794979727,2.840356051656783,0.7871867969702605,C,324,Incorrect
2,new_learn,18,717,B,35.16817967115428,25.927344386001643,1.758408983557714,0.4072657732507767,C,115,Incorrect
2,new_learn,18,718,D,92.72911088223535,55.298787677649635,4.636455544111767,0.8686313256026292,D,257,Correct
2,new_learn,18,719,C,38.75739023121575,64.35716097473865,1.9378695115607878,1.0109199206206734,B,187,Incorrect
2,new_learn,18,720,B,39.5763757247897,43.40930851919126,1.978818786239485,0.6818718237065204,B,255,Correct
2,new_learn,18,721,D,75.04811384979791,66.15322399185496,3.7524056924898956,1.0391324125204577,B,278,Incorrect
2,new_learn,18,722,B,15.531052727794124,56.714177049628944,0.7765526363897063,0.8908642098675256,B,252,Correct
2,new_learn,18,723,C,37.45577616735247,60.99809815503669,1.8727888083676234,0.9581558852340619,B,253,Incorrect
2,new_learn,18,724,D,52.15730271954554,48.235110541565774,2.6078651359772773,0.7576753446123731,C,184,Incorrect
2,new_learn,18,725,D,83.2910287781271,51.591843985337675,4.164551438906355,0.8104027902474379,B,244,Incorrect
2,new_learn,18,726,C,52.36294712651325,77.66911187171948,2.6181473563256623,1.2200235563351887,D,333,Incorrect
2,new_learn,18,727,B,43.773602284445445,40.63802621742364,2.1886801142222723,0.6383406231052375,B,286,Correct
2,new_learn,18,728,B,36.874217978446055,33.93748872474972,1.8437108989223026,0.5330888262948007,B,302,Correct
2,new_learn,18,729,D,63.47171240927822,42.98228675238024,3.173585620463911,0.6751641814788383,C,255,Incorrect
2,new_learn,18,730,B,42.123483150435575,59.89849192605407,2.1061741575217785,0.9408833109799949,B,236,Correct
2,new_learn,18,731,A,56.88596019815789,20.497914997953917,2.8442980099078943,0.3219804958574003,C,267,Incorrect
2,new_learn,18,732,A,65.05361435043558,10.71314464230737,3.2526807175217787,0.16828168252558842,D,231,Incorrect
2,new_learn,18,733,B,44.220519910940496,66.84640694980018,2.2110259955470246,1.0500209049618299,B,367,Correct
2,new_learn,18,734,A,35.204802206962626,9.127285785239787,1.7602401103481313,0.1433710698506193,D,277,Incorrect
2,new_learn,18,735,C,56.198716348866114,54.442118638449344,2.809935817443306,0.855174799802082,D,277,Incorrect
2,new_learn,18,736,B,38.96502404254978,30.798393166079222,1.948251202127489,0.4837800285646229,D,266,Incorrect
2,new_learn,18,737,B,14.571409383434585,58.813897234018626,0.7285704691717292,0.9238465373968897,C,252,Incorrect
2,new_learn,18,738,A,63.03427437000931,20.623753189917288,3.1517137185004653,0.32395715755446614,D,314,Incorrect
2,new_learn,18,739,C,73.35663838092303,68.89498941816407,3.6678319190461512,1.082199963126254,D,300,Incorrect
2,new_learn,18,740,B,29.15035491209079,73.69125455429698,1.4575177456045396,1.1575395197079739,B,306,Correct
2,new_learn,18,741,C,45.76338183379794,63.31077125510722,2.2881690916898973,0.9944832693407435,D,446,Incorrect
2,new_learn,18,742,A,57.5079292398857,50.75269048659453,2.875396461994285,0.7972213979130098,B,310,Incorrect
2,new_learn,18,743,B,43.44741535479525,42.117924258774245,2.1723707677397623,0.6615868071790825,C,349,Incorrect
2,new_learn,18,744,C,54.732470393073726,72.21697423590093,2.7366235196536866,1.1343815786199485,C,391,Correct
2,new_learn,18,745,B,42.14068823143012,54.51142954489108,2.107034411571506,0.8562635329745372,C,292,Incorrect
2,new_learn,18,746,A,72.84483818906091,31.92960671142605,3.6422419094530456,0.5015490893831372,D,270,Incorrect
2,new_learn,18,747,D,68.12817123756203,42.162393669413255,3.4064085618781013,0.6622853310479473,D,381,Correct
2,new_learn,18,748,B,30.284701152712188,41.264007576744405,1.5142350576356094,0.6481735153038689,B,374,Correct
2,new_learn,18,749,C,68.81474249083675,61.98954347799959,3.4407371245418377,0.9737294719493429,C,829,Correct
2,new_learn,18,750,B,21.609033242536324,43.29937377742314,1.0804516621268163,0.6801449728209553,D,396,Incorrect
2,new_learn,18,751,C,74.71767296726259,68.87392572899631,3.7358836483631297,1.0818690954705192,C,278,Correct
2,new_learn,18,752,D,86.20715055108788,28.665430181147965,4.310357527554394,0.4502755243454279,D,297,Correct
2,new_learn,18,753,C,48.10834643656721,64.63858712679831,2.4054173218283608,1.0153405522798666,D,21220,Incorrect
2,new_learn,18,754,C,39.523090399092695,50.56533458442664,1.9761545199546346,0.7942784182837231,D,293,Incorrect
2,new_learn,18,755,D,92.10779340350021,58.773944131022034,4.60538967017501,0.9232189555225788,B,237,Incorrect
2,new_learn,18,756,B,6.66053321337904,67.91618646988371,0.333026660668952,1.0668249623681059,B,302,Correct
2,new_learn,18,757,C,71.73378043873318,83.07840121700865,3.5866890219366585,1.3049924746766985,C,288,Correct
2,new_learn,18,758,B,6.010333271079247,31.336948463376324,0.30051666355396234,0.492239635392325,C,258,Incorrect
2,new_learn,18,759,B,41.62338491078921,68.48345043617078,2.081169245539461,1.0757355239137742,A,301,Incorrect
2,new_learn,18,760,D,67.62623602356432,38.44785128052564,3.381311801178216,0.6039374356460614,B,288,Incorrect
2,new_learn,18,761,A,51.25560146006667,16.64093681603957,2.562780073003333,0.2613952242506091,B,342,Incorrect
2,new_learn,18,762,A,53.41460763775671,15.934719011584237,2.6707303818878354,0.25030198091905326,C,308,Incorrect
2,new_learn,18,763,D,70.88593575656003,56.36431251372882,3.544296787828001,0.8853685505888487,B,390,Incorrect
2,new_learn,18,764,D,81.30026330304055,32.43628434469785,4.065013165152028,0.509507963035262,B,340,Incorrect
2,new_learn,18,765,C,66.59072823628262,72.47043450278927,3.329536411814131,1.1383629231821155,C,319,Correct
2,new_learn,18,766,C,68.24561105067237,64.23012887148658,3.4122805525336184,1.0089245050089397,C,286,Correct
2,new_learn,18,767,A,53.33911235196133,24.932230383793673,2.6669556175980667,0.3916345590566722,D,299,Incorrect
2,new_learn,18,768,D,81.63539418587429,26.8912929362548,4.081769709293715,0.42240744167034583,C,285,Incorrect
2,new_learn,18,769,D,57.009592004467024,47.47815584146915,2.8504796002233515,0.7457851279877542,A,311,Incorrect
2,new_learn,18,770,A,25.3435392489371,33.68439846821409,1.267176962446855,0.5291132938416633,C,321,Incorrect
2,new_learn,18,771,A,53.637529690139345,44.05364002751712,2.681876484506967,0.6919929593716853,B,296,Incorrect
2,new_learn,18,772,A,31.282322180094837,25.528376962756138,1.564116109004742,0.40099880762132806,B,550,Incorrect
2,new_learn,18,773,D,56.453974719280296,52.24480146736919,2.8226987359640145,0.8206594223907215,B,287,Incorrect
2,new_learn,18,774,D,84.83771906495164,57.09977290655062,4.241885953247582,0.8969211354243247,D,275,Correct
2,new_learn,18,775,A,51.63061849760502,49.043815714357734,2.581530924880251,0.7703784557611896,B,241,Incorrect
2,new_learn,18,776,D,67.57161039891113,54.65576384156072,3.3785805199455567,0.858530730804929,B,243,Incorrect
2,new_learn,18,777,B,32.49636512222766,68.46915252550188,1.6248182561113829,1.0755109328581787,B,383,Correct
2,new_learn,18,778,A,26.486934343523767,12.480341956365844,1.3243467171761885,0.19604075302203702,B,228,Incorrect
2,new_learn,18,779,D,75.57865795382756,69.57837699246012,3.7789328976913783,1.092934590041069,C,14,Incorrect
2,new_learn,18,780,C,44.44801910584027,95.23306355931929,2.2224009552920134,1.4959174642840367,B,267,Incorrect
2,new_learn,18,781,A,44.922105722893534,34.894495597295524,2.246105286144677,0.5481214550959249,C,239,Incorrect
2,new_learn,18,782,B,39.93975730323879,62.206383922778365,1.9969878651619397,0.9771355936909335,C,292,Incorrect
2,new_learn,18,783,C,50.923349951237064,77.57589327726886,2.546167497561853,1.2185592820776685,C,8,Correct
2,new_learn,18,784,B,16.0609188886708,33.870279302973486,0.8030459444335399,0.5320331031662796,C,261,Incorrect
2,new_learn,18,785,B,8.777946720242905,47.576615988653934,0.4388973360121453,0.7473317363630895,B,191,Correct
2,new_learn,18,786,C,68.88814089331078,85.36665983346359,3.444407044665539,1.3409363569715402,A,91,Incorrect
2,new_learn,18,787,C,45.166124245765424,89.24757391226996,2.258306212288271,1.401897612767497,D,221,Incorrect
2,new_learn,18,788,B,17.111306506801622,58.31743629098967,0.8555653253400811,0.9160481471398196,C,416,Incorrect
2,new_learn,18,789,A,56.53924343558991,15.06095293384797,2.8269621717794955,0.23657689546519214,D,84,Incorrect
2,new_learn,18,790,A,29.955982155063243,21.905190237431025,1.497799107753162,0.3440859236270008,A,4,Correct
2,new_learn,18,791,D,68.1797014283814,34.50571479978778,3.40898507141907,0.5420145006093895,D,262,Correct
2,new_learn,18,792,A,61.43226984464274,43.214229907746926,3.071613492232137,0.6788075360435903,B,254,Incorrect
2,new_learn,18,793,A,44.53504421936678,40.41179304232235,2.226752210968339,0.634786960700755,C,261,Incorrect
2,new_learn,18,794,B,48.34291761871695,59.66844625404831,2.417145880935848,0.937269762014178,A,277,Incorrect
2,new_learn,18,795,B,38.82651614585782,71.33668456484813,1.9413258072928912,1.1205540208018963,A,287,Incorrect
2,new_learn,18,796,D,69.68928062795793,31.704632333003314,3.4844640313978967,0.4980152001106432,D,292,Correct
2,new_learn,18,797,C,63.06796534339284,78.83115919081573,3.1533982671696426,1.2382769529391708,D,279,Incorrect
2,new_learn,18,798,C,51.535607721541616,69.70098776795017,2.576780386077081,1.0948605555987214,D,221,Incorrect
2,new_learn,18,799,A,68.50047435516817,17.917697792879604,3.4250237177584086,0.28145053877676307,D,230,Incorrect
2,new_learn,18,800,B,40.12362263763941,45.39285100712752,2.0061811318819704,0.7130292362474393,D,270,Incorrect
2,new_learn,18,801,C,35.323099465401384,70.86305165748199,1.7661549732700692,1.1131142124904971,B,285,Incorrect
2,new_learn,18,802,A,68.6422921260699,22.904482035838868,3.432114606303495,0.3597827624903539,D,261,Incorrect
2,new_learn,18,803,C,65.38163497792834,56.815792299779886,3.2690817488964172,0.8924603784843602,A,118,Incorrect
2,new_learn,18,804,A,27.47220114831796,16.8833092596512,1.373610057415898,0.2652024016920237,B,242,Incorrect
2,new_learn,18,805,D,87.40157802120942,28.031010786725304,4.37007890106047,0.4403100878013623,D,225,Correct
2,new_learn,18,806,A,42.6023270844893,36.7806753858662,2.130116354224465,0.5777494979315411,D,227,Incorrect
2,new_learn,18,807,A,51.61432690070434,33.56615261297033,2.580716345035217,0.5272558922909071,D,278,Incorrect
2,new_learn,18,808,B,14.248606755472135,29.9276590632851,0.7124303377736068,0.4701025692617823,D,107,Incorrect
2,new_learn,18,809,D,63.05598415830117,68.7681676245282,3.1527992079150584,1.0802078510502464,D,240,Correct
2,new_learn,18,810,B,39.43308552547542,27.81103539691208,1.9716542762737708,0.43685472245832346,D,276,Incorrect
2,new_learn,18,811,C,42.630259330145705,83.1324850739716,2.131512966507285,1.3058420219152613,D,270,Incorrect
2,new_learn,18,812,C,68.44951465693543,72.98473572063942,3.4224757328467716,1.1464415478207668,D,285,Incorrect
2,new_learn,18,813,C,41.065049716455036,65.35680696159281,2.053252485822752,1.026622323063131,D,227,Incorrect
2,new_learn,18,814,D,86.00169699256904,37.02742326013735,4.300084849628451,0.5816254044770366,C,14565,Incorrect
2,new_learn,18,815,C,55.6303760795882,60.700425168113405,2.78151880397941,0.9534800488896102,D,287,Incorrect
2,new_learn,18,816,C,30.969358500387152,81.05258241613706,1.5484679250193576,1.273170987365087,C,309,Correct
2,new_learn,18,817,C,39.64465052796376,58.11394121684289,1.9822325263981881,0.9128516539899133,A,278,Incorrect
2,new_learn,18,818,B,31.303190760221742,54.878378384404,1.565159538011087,0.8620275518668226,C,301,Incorrect
2,new_learn,18,819,A,36.75607045063563,3.705107228949462,1.8378035225317817,0.05819968825615033,C,279,Incorrect
2,new_learn,18,820,B,20.20007600828896,40.8702938003359,1.010003800414448,0.6419890737659586,B,342,Correct
2,new_learn,18,821,D,56.31033865517767,64.38214137444272,2.8155169327588836,1.0113123118216438,C,277,Incorrect
2,new_learn,18,822,A,36.398201985909665,27.287380784942936,1.8199100992954833,0.42862917504842,D,326,Incorrect
2,new_learn,18,823,D,91.79165336548128,51.265290040716856,4.589582668274065,0.8052732928803302,C,472,Incorrect
2,new_learn,18,824,B,31.70114888281502,36.34084401514281,1.5850574441407508,0.5708406429161262,C,475,Incorrect
2,new_learn,18,825,B,36.3749378413656,68.84867592561056,1.81874689206828,1.081472472486413,D,279,Incorrect
2,new_learn,18,826,A,32.142481023090085,6.471474107588225,1.6071240511545042,0.10165367757147865,A,3,Correct
2,new_learn,18,827,C,59.11145373435029,65.68897745253015,2.9555726867175145,1.0318400449334715,B,270,Incorrect
2,new_learn,18,828,B,10.456296478768706,62.16899118658682,0.5228148239384354,0.9765482299643489,B,367,Correct
2,new_learn,18,829,B,10.453861191731452,39.468167668245755,0.5226930595865725,0.6199645279860553,C,254,Incorrect
2,new_learn,18,830,C,65.31450657235115,95.46519813807271,3.2657253286175574,1.499563825720316,C,262,Correct
2,new_learn,18,831,D,98.03112991649127,46.36716102171395,4.901556495824564,0.7283336621681576,A,92,Incorrect
2,new_learn,18,832,A,66.09889177560137,18.37734475620002,3.3049445887800686,0.28867065639282447,C,344,Incorrect
2,new_learn,18,833,D,90.12832339415604,71.02802400529035,4.506416169707802,1.115705592070098,D,258,Correct
2,new_learn,18,834,B,29.04037468717241,49.24483252633037,1.4520187343586204,0.7735360204598959,C,262,Incorrect
2,new_learn,18,835,D,101.54571598509514,49.174791733128856,5.077285799254757,0.7724358222530286,B,239,Incorrect
2,new_learn,18,836,B,16.244298224172777,67.71805495590262,0.8122149112086389,1.0637127198242677,D,286,Incorrect
2,new_learn,18,837,C,67.87638371589318,87.03469394525577,3.3938191857946594,1.367137775529258,B,292,Incorrect
2,new_learn,18,838,C,40.361695496625714,97.88649353122482,2.018084774831286,1.5375974448168035,D,263,Incorrect
2,new_learn,18,839,A,23.73272070013939,25.15961173838636,1.1866360350069696,0.39520625702243056,C,645,Incorrect
2,new_learn,18,840,C,60.67890194963195,78.63899552459283,3.0339450974815976,1.2352584531287074,D,244,Incorrect
2,new_learn,18,841,D,95.31928938217786,38.38705974228544,4.765964469108893,0.6029825243963822,A,20,Incorrect
2,new_learn,18,842,D,84.26618878542394,39.97847645103084,4.213309439271197,0.6279804396013552,B,51,Incorrect
2,new_learn,18,843,C,51.14182799458659,76.79465132935746,2.55709139972933,1.2062875622564952,B,245,Incorrect
2,new_learn,18,844,B,41.03441246251559,53.15561060765137,2.05172062312578,0.834966378910386,D,7,Incorrect
2,new_learn,18,845,C,46.671274802590766,74.8587231138125,2.3335637401295384,1.1758780729573288,C,11,Correct
2,new_learn,18,846,D,97.14831017738325,42.09681723387335,4.857415508869162,0.6612552588072437,D,431,Correct
2,new_learn,18,847,D,58.67819053393964,52.12106471971095,2.933909526696982,0.8187157701036103,B,236,Incorrect
2,new_learn,18,848,D,70.09459662034055,42.63412951094423,3.504729831017028,0.6696953403188909,B,214,Incorrect
2,new_learn,18,849,D,97.36873050815251,45.706891780611855,4.868436525407626,0.7179621771819695,B,447,Incorrect
2,new_learn,18,850,D,79.63822303866154,61.207984725406504,3.9819111519330765,0.9614527757718666,B,235,Incorrect
2,new_learn,18,851,D,94.55351054310994,59.346719053842364,4.727675527155497,0.9322160829710426,D,46,Correct
2,new_learn,18,852,D,74.4434132900431,30.256086591288515,3.722170664502155,0.4752614968078433,B,423,Incorrect
2,new_learn,18,853,B,26.23506836481971,70.647164695575,1.3117534182409856,1.1097230680228332,B,124,Correct
2,new_learn,18,854,A,41.916033374542145,41.173444071593025,2.0958016687271073,0.6467509470915344,D,198,Incorrect
2,new_learn,18,855,A,49.436095442355324,0.8029458796973081,2.4718047721177663,0.012612644384436282,D,159,Incorrect
2,new_learn,18,856,B,37.04714044446624,38.13958702327618,1.8523570222233119,0.5990952320163653,D,149,Incorrect
2,new_learn,18,857,A,48.94866477699985,12.148942322112061,2.4474332388499924,0.1908351397401669,D,214,Incorrect
2,new_learn,18,858,A,74.04240443678142,35.196155756216065,3.7021202218390714,0.5528599217916526,D,59,Incorrect
2,new_learn,18,859,D,87.60594454413412,36.91107759847715,4.380297227206706,0.5797978510972931,D,21,Correct
2,new_learn,18,860,D,69.84883253910283,41.0000767898462,3.4924416269551415,0.644027700197991,B,24,Incorrect
2,new_learn,18,861,C,72.7061664945625,79.8464078020478,3.6353083247281246,1.2542244408322405,C,179,Correct
2,new_learn,18,862,B,26.523608334736558,42.3911230996863,1.326180416736828,0.6658782045369753,B,61,Correct
2,new_learn,18,863,B,16.47815432940591,51.00522359153567,0.8239077164702955,0.8011881786493663,D,117,Incorrect
2,new_learn,18,864,B,33.322199501739746,67.5106256261242,1.6661099750869874,1.0604544275314132,B,360,Correct
2,new_learn,18,865,D,75.0836407429554,72.25334670541355,3.7541820371477694,1.1349529160350174,D,211,Correct
2,new_learn,18,866,A,24.4645359517595,21.229717530268594,1.2232267975879751,0.3334756231543913,C,44,Incorrect
2,new_learn,18,867,D,93.12948341753912,41.87934456909853,4.656474170876956,0.6578392061771776,C,70,Incorrect
2,new_learn,18,868,B,8.89438895004161,52.25288684884944,0.4447194475020805,0.8207864272660205,C,467,Incorrect
2,new_learn,18,869,D,71.61286197162899,31.468865234782243,3.5806430985814495,0.49431177919199565,B,534,Incorrect
2,new_learn,18,870,B,23.67187927635599,53.30635091267831,1.1835939638177997,0.8373342020847486,B,68,Correct
2,new_learn,18,871,C,56.60967522603701,97.1587185749799,2.8304837613018505,1.5261655825367753,B,110,Incorrect
2,new_learn,18,872,B,18.617200952547467,49.56257508559806,0.9308600476273733,0.7785271089095368,D,144,Incorrect
2,new_learn,18,873,A,43.71049304388818,12.955508824367497,2.1855246521944087,0.20350465673075332,A,12,Correct
2,new_learn,18,874,D,74.48174667001054,49.100610105894006,3.7240873335005267,0.7712705799772669,B,47,Incorrect
2,new_learn,18,875,A,31.924513218373566,8.403172087553852,1.5962256609186785,0.13199671848554992,C,490,Incorrect
2,new_learn,18,876,A,62.1923262799126,32.54541702114839,3.10961631399563,0.5112222151082799,C,69,Incorrect
2,new_learn,18,877,B,18.367084233347462,44.66983577107489,0.9183542116673732,0.7016721394773571,D,104,Incorrect
2,new_learn,18,878,C,58.90838274510354,72.40585904598143,2.9454191372551772,1.1373485742785665,D,108,Incorrect
2,new_learn,18,879,D,60.50595041296273,39.2766392658211,3.0252975206481367,0.6169560068759998,D,103,Correct
2,new_learn,18,880,A,32.05738399117219,18.527301028928438,1.6028691995586093,0.291026164016641,C,125,Incorrect
2,new_learn,18,881,C,40.734747205378554,74.96462147365037,2.0367373602689276,1.1775415205037982,D,85,Incorrect
2,new_learn,18,882,B,11.973187186858528,30.827650640516328,0.5986593593429264,0.4842396038983938,D,49,Incorrect
2,new_learn,18,883,C,34.861734155563695,69.53086310445693,1.7430867077781846,1.0921882436335975,B,158,Incorrect
2,new_learn,18,884,D,54.71096395261466,61.325397400243,2.7355481976307328,0.9632970897553901,D,18,Correct
2,new_learn,18,885,A,37.559690173317684,9.552102445607167,1.8779845086658842,0.15004407434728284,C,495,Incorrect
2,new_learn,18,886,D,78.26793187950614,75.1728772785689,3.913396593975307,1.1808127950377956,D,86,Correct
2,new_learn,18,887,A,45.995715764580126,-0.048764330695838964,2.2997857882290065,-0.0007659883153563547,D,181,Incorrect
2,new_learn,18,888,B,36.03359255146905,72.84279583375952,1.8016796275734523,1.1442119612914006,C,462,Incorrect
2,new_learn,18,889,C,49.33002533126146,56.08063221075069,2.466501266563073,0.8809125108098275,D,102,Incorrect
2,new_learn,18,890,D,83.95960218212797,33.56722749029093,4.197980109106399,0.5272727764243766,D,166,Correct
2,new_learn,18,891,C,25.729850175003495,82.25850957430887,1.2864925087501748,1.2921136468694723,C,156,Correct
2,new_learn,18,892,D,73.50583225182915,63.928212516753945,3.675291612591457,1.0041820139988062,D,470,Correct
2,new_learn,18,893,A,65.56090701115426,36.63274206720611,3.2780453505577127,0.5754257667959224,C,215,Incorrect
2,new_learn,18,894,C,44.2641182442172,52.53577745392647,2.21320591221086,0.8252300624994183,D,236,Incorrect
2,new_learn,18,895,A,40.80893999214883,6.219922045412272,2.0404469996074415,0.09770230701884194,B,310,Incorrect
2,new_learn,18,896,C,59.26037755552089,85.13357645383373,2.9630188777760447,1.3372750918059453,D,339,Incorrect
