experiment,condition,subject,trial,cat,x,y,xt,yt,resp,rt,fb
2,relearn,9,0,B,55.13857879597858,66.21719817796898,2.756928939798929,1.040137316686034,A,991,Incorrect
2,relearn,9,1,D,66.35674992263799,38.50117977366669,3.317837496131899,0.604775117657456,C,820,Incorrect
2,relearn,9,2,A,41.01462503127931,60.023377168846956,2.0507312515639655,0.9428450037864945,B,1272,Incorrect
2,relearn,9,3,C,67.00497255155018,25.23911342600098,3.3502486275775087,0.396455066611221,D,758,Incorrect
2,relearn,9,4,D,53.775812996975176,25.90761534135822,2.688790649848759,0.40695587014220597,A,861,Incorrect
2,relearn,9,5,D,53.414377801727404,39.28501273689991,2.6707188900863703,0.617087537052131,A,543,Incorrect
2,relearn,9,6,C,84.7196595707083,71.42070211834275,4.235982978535415,1.1218737654460527,A,395,Incorrect
2,relearn,9,7,D,50.015699341806226,19.372331935479682,2.5007849670903113,0.30429987845702955,A,391,Incorrect
2,relearn,9,8,B,48.98563854171048,87.45094059769173,2.449281927085524,1.3736761626561287,A,589,Incorrect
2,relearn,9,9,D,37.59139458249389,15.273811677797932,1.8795697291246944,0.23992047279641987,A,500,Incorrect
2,relearn,9,10,B,41.04093859907232,55.61799041791838,2.052046929953616,0.8736453505217995,A,767,Incorrect
2,relearn,9,11,A,32.28708231582878,70.4011036689282,1.6143541157914394,1.1058579504545911,A,309,Correct
2,relearn,9,12,C,84.75694527061785,70.27053391686164,4.237847263530893,1.1038069655852245,A,1071,Incorrect
2,relearn,9,13,B,54.96876481665198,60.56092277488959,2.748438240832599,0.9512887504210596,B,1044,Correct
2,relearn,9,14,C,76.84442636726219,73.96842260150262,3.8422213183631095,1.1618932652125291,B,973,Incorrect
2,relearn,9,15,B,64.25794988371072,65.6231562852416,3.212897494185536,1.0308061284554495,C,616,Incorrect
2,relearn,9,16,C,59.416893746518056,49.229102511516714,2.9708446873259025,0.7732889339649988,B,653,Incorrect
2,relearn,9,17,C,68.74203373208343,38.12882748088624,3.4371016866041715,0.5989262215197241,B,767,Incorrect
2,relearn,9,18,D,63.31372956669182,4.004567968631758,3.1656864783345906,0.06290360655527265,C,854,Incorrect
2,relearn,9,19,B,56.96215980102143,80.68486046060328,2.848107990051071,1.2673948243947442,B,756,Correct
2,relearn,9,20,C,95.0789299212685,41.921700797318465,4.753946496063424,0.6585045362542253,D,677,Incorrect
2,relearn,9,21,D,50.293054654966504,16.754946055715713,2.5146527327483255,0.2631860771996488,C,1190,Incorrect
2,relearn,9,22,C,73.40526994419089,74.7646090304253,3.6702634972095445,1.1743997323924862,D,719,Incorrect
2,relearn,9,23,A,17.71392320416318,41.38646089092237,0.885696160208159,0.6500970074650151,A,820,Correct
2,relearn,9,24,A,5.326089736559247,46.83466187919994,0.2663044868279624,0.7356771484652823,A,1486,Correct
2,relearn,9,25,C,78.44231523483883,57.715942611171,3.9221157617419413,0.9065999065113247,D,1542,Incorrect
2,relearn,9,26,B,55.59739177201002,57.50115292402975,2.779869588600501,0.9032259979953756,C,957,Incorrect
2,relearn,9,27,B,57.77612345476384,70.46641810840289,2.888806172738192,1.1068839072707264,D,654,Incorrect
2,relearn,9,28,B,70.39329409084331,63.40023993101879,3.5196647045421656,0.9958886400155944,A,621,Incorrect
2,relearn,9,29,D,54.60688002931805,18.677625542232157,2.7303440014659026,0.2933874559498881,C,1349,Incorrect
2,relearn,9,30,D,39.77088819294533,45.488769181577794,1.9885444096472664,0.7145359154084329,D,1174,Correct
2,relearn,9,31,C,82.74475865466225,33.96912314544669,4.137237932733112,0.5335857386131116,D,610,Incorrect
2,relearn,9,32,B,51.21884438935118,62.088161337510925,2.560942219467559,0.9752785576641106,B,583,Correct
2,relearn,9,33,C,74.74399745080557,48.7671136135997,3.7371998725402786,0.766032029326318,C,1078,Correct
2,relearn,9,34,C,85.26131918886273,58.99918792887848,4.263065959443137,0.926757076825641,D,941,Incorrect
2,relearn,9,35,A,21.237469744081874,32.26226108281533,1.0618734872040938,0.5067744120298426,A,854,Correct
2,relearn,9,36,C,58.7969240410373,52.127698300375634,2.939846202051865,0.8188199701450264,C,1069,Correct
2,relearn,9,37,D,37.463184457946774,23.952779616896528,1.8731592228973386,0.3762493823874874,D,852,Correct
2,relearn,9,38,D,47.26410132284473,45.999129818201425,2.363205066142237,0.722552641541924,C,1048,Incorrect
2,relearn,9,39,C,53.32447447911994,60.23756197506175,2.666223723955997,0.9462094108550694,B,1070,Incorrect
2,relearn,9,40,A,17.73591461552563,75.52921340054797,0.8867957307762815,1.1864101097528865,A,710,Correct
2,relearn,9,41,A,29.428130428355857,59.6842781743555,1.471406521417793,0.9375184492368243,A,757,Correct
2,relearn,9,42,A,17.57707431575792,60.57782600929596,0.8788537157878961,0.9515542658062243,A,611,Correct
2,relearn,9,43,D,45.418372522539414,0.1591341763746712,2.2709186261269707,0.002499673797168647,D,1237,Correct
2,relearn,9,44,A,35.039067998534264,26.499718983012666,1.7519533999267134,0.4162566123961329,C,953,Incorrect
2,relearn,9,45,A,14.999975234376821,42.469084907766295,0.7499987617188411,0.6671028257545987,A,755,Correct
2,relearn,9,46,A,33.196432257811935,67.26355840978957,1.6598216128905967,1.0565735047725142,B,1719,Incorrect
2,relearn,9,47,D,42.42151232257775,2.952628914494362,2.1210756161288873,0.046379786532761466,D,765,Correct
2,relearn,9,48,A,31.864466254652005,24.334115860696933,1.5932233127326003,0.38223939809784174,C,1257,Incorrect
2,relearn,9,49,D,37.03056224234284,11.57331857274724,1.851528112117142,0.18179326302898519,B,1051,Incorrect
2,relearn,9,50,D,30.465822894977173,31.641973683195864,1.5232911447488586,0.49703096034104843,A,1181,Incorrect
2,relearn,9,51,A,36.51928341347904,47.07726512049068,1.8259641706739518,0.7394879512681627,B,1576,Incorrect
2,relearn,9,52,B,50.474176322195056,83.44696573467607,2.5237088161097527,1.3107818725820874,B,980,Correct
2,relearn,9,53,A,37.45973525055949,66.62690746102189,1.8729867625279746,1.0465730150547665,C,1398,Incorrect
2,relearn,9,54,B,70.97518145585961,85.30337109137788,3.548759072792981,1.3399422197355835,B,1670,Correct
2,relearn,9,55,B,46.1841121630365,98.27232570097773,2.3092056081518253,1.543658082366875,C,1391,Incorrect
2,relearn,9,56,A,33.0686206987783,33.0132096135901,1.6534310349389147,0.5185702839673729,A,1212,Correct
2,relearn,9,57,A,9.882041938415673,37.62359231665845,0.49410209692078366,0.5909900061183581,A,613,Correct
2,relearn,9,58,B,63.28332369024858,93.50563506071124,3.164166184512429,1.4687830808798932,C,1349,Incorrect
2,relearn,9,59,C,70.1771168486103,39.72560634839181,3.5088558424305147,0.6240083653175388,C,1172,Correct
2,relearn,9,60,C,68.92818069310763,62.32925896046056,3.4464090346553813,0.9790657102693934,C,665,Correct
2,relearn,9,61,A,32.16515373972718,72.85487636918975,1.608257686986359,1.144401721898196,C,1204,Incorrect
2,relearn,9,62,D,38.11164954020902,30.52521814062604,1.905582477010451,0.4794890052990832,D,1006,Correct
2,relearn,9,63,C,87.48783980857141,27.21114544045633,4.37439199042857,0.427431673057505,C,1389,Correct
2,relearn,9,64,D,44.65928639105964,33.885561056669246,2.2329643195529822,0.5322731483920025,B,1136,Incorrect
2,relearn,9,65,C,74.982399311963,42.39769799658705,3.7491199655981493,0.6659814827759827,C,854,Correct
2,relearn,9,66,D,67.89595134988406,44.34466478424184,3.394797567494203,0.6965643655603809,C,1028,Incorrect
2,relearn,9,67,A,29.297336724596832,37.90035440566583,1.4648668362298418,0.5953373748464467,A,686,Correct
2,relearn,9,68,A,29.76892383604362,42.00188469387499,1.488446191802181,0.6597640619560163,A,677,Correct
2,relearn,9,69,C,66.96355487328333,62.831999072134046,3.3481777436641664,0.986962733476885,D,979,Incorrect
2,relearn,9,70,A,-1.0960943431267829,54.97555774138728,-0.054804717156339146,0.8635540416367188,C,1886,Incorrect
2,relearn,9,71,D,50.491700929902485,12.531899432175905,2.5245850464951243,0.19685061595824957,B,1126,Incorrect
2,relearn,9,72,C,84.41006031951343,73.57397521255783,4.220503015975671,1.1556973001158461,B,1231,Incorrect
2,relearn,9,73,C,81.84294101276336,46.35183862150858,4.092147050638168,0.7280929784685549,D,635,Incorrect
2,relearn,9,74,C,70.4288463418798,70.05521497549495,3.5214423170939906,1.100424743563343,B,1022,Incorrect
2,relearn,9,75,C,58.98111968044351,63.26377387832295,2.9490559840221753,0.9937450362725261,C,559,Correct
2,relearn,9,76,B,47.57420785266996,76.26470101492386,2.378710392633498,1.197963122183534,C,685,Incorrect
2,relearn,9,77,B,63.50345979314635,70.51023699776384,3.1751729896573178,1.1075722127752505,C,773,Incorrect
2,relearn,9,78,D,62.7651030725844,39.09291135879464,3.1382551536292205,0.6140700156611311,B,661,Incorrect
2,relearn,9,79,A,49.76031277972781,45.84170778049431,2.4880156389863908,0.7200798619560549,C,644,Incorrect
2,relearn,9,80,B,65.13098817362436,53.96177572241504,3.256549408681218,0.8476295909209957,D,679,Incorrect
2,relearn,9,81,B,24.251432385667442,81.70045310352295,1.2125716192833722,1.2833477163249254,A,741,Incorrect
2,relearn,9,82,B,47.94059459312346,77.6567502526876,2.3970297296561727,1.2198293804775033,C,677,Incorrect
2,relearn,9,83,A,38.65390267600836,55.31015885982857,1.932695133800418,0.8688099437146092,B,591,Incorrect
2,relearn,9,84,D,62.320537096710055,30.030534407283,3.1160268548355026,0.4717185313864789,C,1127,Incorrect
2,relearn,9,85,A,9.697645383188332,59.833411448835534,0.48488226915941657,0.9398610292343856,A,798,Correct
2,relearn,9,86,B,67.02570708207656,81.37741035404062,3.3512853541038283,1.2782733726820799,C,1924,Incorrect
2,relearn,9,87,D,53.05031389766304,-1.410860585674694,2.6525156948831516,-0.02216174625597506,D,798,Correct
2,relearn,9,88,C,63.7933825627174,69.13418322769981,3.18966912813587,1.085957210700362,B,1293,Incorrect
2,relearn,9,89,D,41.375364826944036,22.861833438001685,2.0687682413472017,0.35911283988209797,C,1374,Incorrect
2,relearn,9,90,D,68.50951814356522,42.614592727508665,3.425475907178261,0.6693884572423112,B,902,Incorrect
2,relearn,9,91,D,61.34570024122023,13.71643296094806,3.067285012061012,0.21545722511785662,B,1148,Incorrect
2,relearn,9,92,C,98.72946928986511,46.431051459242816,4.936473464493256,0.7293372508140344,A,999,Incorrect
2,relearn,9,93,D,56.03190271742016,23.11462181371026,2.8015951358710076,0.36308363040229263,C,1181,Incorrect
2,relearn,9,94,C,94.72697230848709,58.19653016243167,4.736348615424355,0.9141489581135608,B,734,Incorrect
2,relearn,9,95,A,10.55493497449018,31.29122006202062,0.527746748724509,0.4915213353435277,A,884,Correct
2,relearn,9,96,A,6.17782895322912,39.67465995737769,0.30889144766145604,0.6232081012788545,A,614,Correct
2,relearn,9,97,A,11.280069922609428,29.854944495768358,0.5640034961304714,0.4689603715061846,A,566,Correct
2,relearn,9,98,D,29.75730338556589,34.17810651676409,1.4878651692782945,0.5368684417333773,A,925,Incorrect
2,relearn,9,99,C,92.49724838782883,52.00516585376781,4.624862419391442,0.8168952349745785,C,2222,Correct
2,relearn,9,100,C,85.69997022267269,69.98010052174705,4.284998511133634,1.0992448484829789,C,683,Correct
2,relearn,9,101,A,4.283669899333766,37.97082528855766,0.21418349496668831,0.5964443288863714,A,1014,Correct
2,relearn,9,102,B,53.492432507107,49.51248457439702,2.6746216253553494,0.7777402889995181,C,935,Incorrect
2,relearn,9,103,A,14.109833715171538,36.701556694478555,0.7054916857585769,0.5765067044334157,A,772,Correct
2,relearn,9,104,A,21.940435145545937,44.32087077315907,1.097021757277297,0.6961906101082955,A,2086,Correct
2,relearn,9,105,B,47.02594180016194,52.00724803823353,2.351297090008097,0.8169279418516832,C,1942,Incorrect
2,relearn,9,106,D,48.143045230375954,42.860359629686414,2.4071522615187977,0.673248954714197,B,702,Incorrect
2,relearn,9,107,C,71.02553044847423,67.48585073470956,3.5512765224237115,1.0600652644471042,C,861,Correct
2,relearn,9,108,B,63.40068288089894,70.55008311306224,3.1700341440449473,1.1081981140907284,C,728,Incorrect
2,relearn,9,109,D,64.92076952714507,15.180938641042006,3.2460384763572536,0.23846162654647493,B,1133,Incorrect
2,relearn,9,110,D,61.00292806990592,6.162611396156535,3.050146403495296,0.09680207344547055,D,655,Correct
2,relearn,9,111,D,26.54617302167844,20.202648766894917,1.327308651083922,0.3173424647456598,A,1236,Incorrect
2,relearn,9,112,C,78.15705659326045,50.41680881930759,3.9078528296630224,0.7919453810208891,B,1166,Incorrect
2,relearn,9,113,B,70.78078748647646,67.62302264191277,3.539039374323823,1.062219955726847,C,1046,Incorrect
2,relearn,9,114,D,47.25832726090483,37.65855870449695,2.362916363045241,0.5915392568541379,B,934,Incorrect
2,relearn,9,115,B,48.64191111234399,59.5614018874521,2.4320955556171997,0.9355883130356438,A,591,Incorrect
2,relearn,9,116,A,43.53610927700232,45.188330344199365,2.176805463850116,0.7098166331866271,A,661,Correct
2,relearn,9,117,B,47.987147244473334,69.0892943146991,2.399357362223667,1.085252097303809,C,1212,Incorrect
2,relearn,9,118,C,76.51438017568168,54.01620262598175,3.8257190087840844,0.8484845267230097,B,582,Incorrect
2,relearn,9,119,C,95.76774632387169,37.54382630435213,4.788387316193584,0.5897370445270194,B,1236,Incorrect
2,relearn,9,120,B,52.73653222796608,90.51417135400462,2.636826611398304,1.4217932788575431,C,1702,Incorrect
2,relearn,9,121,C,77.1532027355179,41.72457516410039,3.8576601367758947,0.6554080940484647,B,614,Incorrect
2,relearn,9,122,A,11.635344002378332,36.610787129101226,0.5817672001189166,0.5750808994346207,A,757,Correct
2,relearn,9,123,A,39.09380248538916,66.37452264657196,1.9546901242694583,1.042608563659999,A,957,Correct
2,relearn,9,124,C,54.473617615322055,33.35204515838103,2.7236808807661026,0.5238927002588244,C,2198,Correct
2,relearn,9,125,A,31.967233987528083,67.45597163728496,1.5983616993764043,1.0595959246822795,B,1014,Incorrect
2,relearn,9,126,D,59.83520234024044,38.328616989501626,2.9917601170120225,0.6020645077823762,C,471,Incorrect
2,relearn,9,127,C,66.15093726811995,59.3338542729625,3.3075468634059972,0.9320140034655316,C,971,Correct
2,relearn,9,128,C,82.29895305415455,51.65733274568814,4.114947652707728,0.8114314852894866,C,622,Correct
2,relearn,9,129,C,79.70456114770015,69.52431176981024,3.985228057385007,1.092085335509611,C,894,Correct
2,relearn,9,130,B,56.49203094805921,73.530613230064,2.8246015474029607,1.1550161716876075,C,766,Incorrect
2,relearn,9,131,C,84.15379742863945,43.234555027555025,4.207689871431972,0.6791268022789527,C,694,Correct
2,relearn,9,132,D,62.32144370655704,1.3453861222633954,3.116072185327852,0.021133275789721708,D,616,Correct
2,relearn,9,133,C,63.84464356336221,45.08642755269876,3.1922321781681102,0.7082159478808343,B,1011,Incorrect
2,relearn,9,134,B,47.3666516313173,99.67478618157031,2.368332581565865,1.5656878800807734,D,1120,Incorrect
2,relearn,9,135,D,66.81509342541936,20.366144132473625,3.340754671270968,0.3199106439426501,C,620,Incorrect
2,relearn,9,136,D,37.25113785185075,4.925771786947919,1.8625568925925375,0.07737384229567726,A,935,Incorrect
2,relearn,9,137,A,32.85039619603812,38.80712778939982,1.6425198098019058,0.609580937850494,B,771,Incorrect
2,relearn,9,138,C,92.43750427475788,52.12821677340544,4.621875213737894,0.8188281143003338,C,1654,Correct
2,relearn,9,139,D,54.296020808400776,41.561427284598494,2.7148010404200384,0.652845373150005,C,660,Incorrect
2,relearn,9,140,B,72.2262379669764,62.60203389965585,3.61131189834882,0.9833504489946899,C,662,Incorrect
2,relearn,9,141,B,42.42162942674579,54.82749613906714,2.1210814713372894,0.8612282954260803,A,1456,Incorrect
2,relearn,9,142,B,54.15627933837652,80.094706296757,2.707813966918826,1.2581247044666195,C,1509,Incorrect
2,relearn,9,143,C,64.34237776535998,38.038847282284806,3.217118888267999,0.59751281586525,C,684,Correct
2,relearn,9,144,B,32.84244379475466,76.94674663602791,1.642122189737733,1.208676669746902,B,569,Correct
2,relearn,9,145,A,2.2831080502265486,56.880715123161444,0.11415540251132743,0.8934801838092892,A,805,Correct
2,relearn,9,146,D,73.30607029216306,28.226898477694753,3.6653035146081527,0.44338708445575375,C,1446,Incorrect
2,relearn,9,147,B,24.228121023926313,68.39383440870695,1.2114060511963158,1.0743278386461528,B,2107,Correct
2,relearn,9,148,D,37.758574023623844,12.097037564046316,1.8879287011811923,0.19001982170703838,D,911,Correct
2,relearn,9,149,A,43.122381577246855,43.43145190931473,2.1561190788623428,0.6822196512652078,C,998,Incorrect
2,relearn,9,150,B,60.234292133370786,63.04034104542036,3.0117146066685394,0.9902353615404386,C,925,Incorrect
2,relearn,9,151,A,33.55664107351703,39.00192412934838,1.6778320536758513,0.6126407916031368,A,748,Correct
2,relearn,9,152,A,7.202863792759931,50.5381367149944,0.3601431896379965,0.7938511951497151,A,647,Correct
2,relearn,9,153,C,56.38081136477511,61.66347415035206,2.819040568238756,0.9686075869278507,C,1046,Correct
2,relearn,9,154,D,60.87870932841378,36.51697154255177,3.043935466420689,0.5736072476471409,B,2187,Incorrect
2,relearn,9,155,C,69.30256266683519,70.84537142551886,3.465128133341759,1.1128364920562517,B,1790,Incorrect
2,relearn,9,156,B,68.19405421748628,74.26492933650293,3.409702710874314,1.1665507821146135,C,558,Incorrect
2,relearn,9,157,C,61.690568084185806,36.983127637862594,3.08452840420929,0.5809296104694138,A,631,Incorrect
2,relearn,9,158,A,5.586467531922473,65.28816977433556,0.27932337659612366,1.0255441726468788,A,517,Correct
2,relearn,9,159,B,51.53578732279133,86.9676891710142,2.5767893661395664,1.366085266996694,C,1438,Incorrect
2,relearn,9,160,D,72.79443417367045,18.880281978093027,3.6397217086835223,0.29657077580040414,D,1693,Correct
2,relearn,9,161,C,97.07046914617119,53.520299132565476,4.85352345730856,0.8406948928639794,B,1133,Incorrect
2,relearn,9,162,D,41.53533476747024,13.28865856027232,2.076766738373512,0.2087377605450732,B,998,Incorrect
2,relearn,9,163,B,24.50990376960964,71.6279862870798,1.225495188480482,1.1251297775546016,B,852,Correct
2,relearn,9,164,A,23.441185413645567,56.08816066582093,1.1720592706822783,0.8810307675055351,A,648,Correct
2,relearn,9,165,B,35.98065200900017,69.61824051663571,1.7990326004500081,1.09356076481455,A,756,Incorrect
2,relearn,9,166,A,12.686894088591558,70.52885187254932,0.6343447044295779,1.1078646145446183,A,775,Correct
2,relearn,9,167,C,51.88782873435858,61.192404147879316,2.594391436717929,0.9612080366323762,C,1220,Correct
2,relearn,9,168,C,64.92410227572444,50.84134285313967,3.2462051137862216,0.7986139460303175,B,1476,Incorrect
2,relearn,9,169,A,41.34920277581108,54.73026307399379,2.067460138790554,0.8597009620114782,C,640,Incorrect
2,relearn,9,170,C,71.60256508278295,45.97015131155749,3.580128254139147,0.722097448224001,C,1348,Correct
2,relearn,9,171,C,53.82783490820256,42.74183202056773,2.691391745410128,0.6713871273839228,C,1692,Correct
2,relearn,9,172,B,66.20475932508702,91.64749776818896,3.310237966254351,1.4395955285421467,B,2007,Correct
2,relearn,9,173,A,35.884693726191195,30.857751647406513,1.7942346863095597,0.48471242940895315,C,932,Incorrect
2,relearn,9,174,B,61.77088545631864,78.6836026169373,3.088544272815932,1.2359591396967442,B,1350,Correct
2,relearn,9,175,D,54.59007471245937,5.711457619054293,2.729503735622968,0.08971536648655211,D,1098,Correct
2,relearn,9,176,A,5.4290916596953025,33.31796697882608,0.2714545829847651,0.5233574014661366,A,561,Correct
2,relearn,9,177,A,39.1221869164145,42.27065675146168,1.956109345820725,0.663985923564039,C,2063,Incorrect
2,relearn,9,178,B,41.020907123108266,89.20320981982425,2.0510453561554134,1.4012007432329436,B,1019,Correct
2,relearn,9,179,A,0.8845107117903339,43.35897366220151,0.044225535589516696,0.6810811656218279,A,862,Correct
2,relearn,9,180,B,64.68679521071962,57.574225896068995,3.2343397605359816,0.904373825556048,B,1952,Correct
2,relearn,9,181,A,25.932676131090847,57.09429935312586,1.2966338065545424,0.8968351570481834,A,947,Correct
2,relearn,9,182,D,75.76369017036835,26.104891680025425,3.788184508518418,0.41005467962362596,D,1405,Correct
2,relearn,9,183,D,48.08668921444343,42.40661226739507,2.4043344607221715,0.6661215078143958,B,1790,Incorrect
2,relearn,9,184,A,26.326081878420364,49.78553236758685,1.3163040939210182,0.7820293137053387,A,743,Correct
2,relearn,9,185,A,11.233588344321879,50.76486907498587,0.5616794172160939,0.7974126987321163,A,628,Correct
2,relearn,9,186,B,62.433782402212245,92.42888580656485,3.1216891201106125,1.4518695431469697,C,1368,Incorrect
2,relearn,9,187,A,23.470906135309313,59.22642564343588,1.1735453067654658,0.9303265184990015,A,1004,Correct
2,relearn,9,188,B,47.99289934136762,51.05315227239264,2.399644967068381,0.8019410406077488,C,760,Incorrect
2,relearn,9,189,B,59.372014284010824,82.85387393527556,2.9686007142005413,1.3014656083825826,B,1071,Correct
2,relearn,9,190,A,10.879374888394869,34.941483340143144,0.5439687444197435,0.5488595368346192,A,625,Correct
2,relearn,9,191,C,55.996288858770114,65.69167243573565,2.799814442938506,1.0318823776306711,B,1192,Incorrect
2,relearn,9,192,B,75.76439861586212,67.66107905433216,3.788219930793106,1.062817744455241,B,998,Correct
2,relearn,9,193,C,78.58413138964839,32.85690253853919,3.9292065694824196,0.5161150181739527,C,1246,Correct
2,relearn,9,194,A,47.8039091716279,41.17802592300748,2.390195458581395,0.6468229186452519,B,1349,Incorrect
2,relearn,9,195,C,50.768673353847234,49.93876492664519,2.538433667692362,0.7844362851144807,C,447,Correct
2,relearn,9,196,B,33.487155193874685,83.70827605391935,1.6743577596937342,1.314886525478297,B,2555,Correct
2,relearn,9,197,D,62.17304101863031,19.220129947149836,3.108652050931515,0.30190909521503556,D,902,Correct
2,relearn,9,198,C,81.18860010957684,50.88866390023069,4.059430005478842,0.7993572632998242,C,2293,Correct
2,relearn,9,199,B,56.99201344636681,73.0848309342761,2.8496006723183402,1.1480138397598691,C,2118,Incorrect
2,relearn,9,200,C,49.416242830348374,45.579534249782846,2.4708121415174187,0.7159616497658107,C,1503,Correct
2,relearn,9,201,D,48.79933557986082,50.151841525177105,2.4399667789930413,0.7877832844974795,C,797,Incorrect
2,relearn,9,202,C,57.52730022175682,44.14180597795678,2.876365011087841,0.6933778668826751,C,806,Correct
2,relearn,9,203,C,83.96720692297136,37.13980500261169,4.198360346148568,0.5833906927598117,C,1556,Correct
2,relearn,9,204,B,26.83012616560553,83.53719359507602,1.3415063082802765,1.3121991684989958,A,1196,Incorrect
2,relearn,9,205,D,58.08789228575398,45.68267699118943,2.904394614287699,0.7175818121591809,C,733,Incorrect
2,relearn,9,206,C,74.31471948408777,61.072700351765164,3.7157359742043887,0.9593277337999809,C,1158,Correct
2,relearn,9,207,C,63.78945526206582,33.74597909800654,3.189472763103291,0.5300806001124604,C,1381,Correct
2,relearn,9,208,D,46.982427224841956,8.117988693507808,2.349121361242098,0.12751706820724568,D,639,Correct
2,relearn,9,209,C,90.45455787797228,61.504531050759375,4.5227278938986135,0.9661109145577549,C,2662,Correct
2,relearn,9,210,D,69.5623414215738,20.043747408942323,3.4781170710786906,0.31484644805171325,D,1093,Correct
2,relearn,9,211,A,1.3666193443092993,60.27781049995384,0.06833096721546497,0.9468416332056634,A,782,Correct
2,relearn,9,212,A,45.838420300366764,54.56559259575544,2.291921015018338,0.8571143241879946,C,1101,Incorrect
2,relearn,9,213,A,2.027710189150188,41.445079249216434,0.10138550945750939,0.6510177824839256,A,608,Correct
2,relearn,9,214,A,16.62910449530451,49.60752150079989,0.8314552247652256,0.7792331255485533,A,947,Correct
2,relearn,9,215,C,72.92056471895577,31.290985192321056,3.646028235947789,0.4915176460189141,C,2336,Correct
2,relearn,9,216,D,58.91423471006368,26.98847570678318,2.945711735503184,0.42393398506008323,C,1426,Incorrect
2,relearn,9,217,A,32.72904981742134,35.0736933896573,1.6364524908710671,0.5509362874360413,C,1767,Incorrect
2,relearn,9,218,D,38.91049370895946,34.28147844424668,1.9455246854479729,0.5384922041732111,C,1141,Incorrect
2,relearn,9,219,A,-0.4503546821001052,45.65776336546828,-0.02251773410500526,0.7171904698414817,A,663,Correct
2,relearn,9,220,A,6.490510574451108,63.949216513936385,0.32452552872255536,1.004511944015028,A,935,Correct
2,relearn,9,221,D,35.761345341722,29.966518476462902,1.7880672670861,0.47071297149659325,D,2172,Correct
2,relearn,9,222,B,54.092599549228666,97.66189804267293,2.7046299774614333,1.5340695071324835,D,1072,Incorrect
2,relearn,9,223,C,96.20843654544876,36.11381807050425,4.810421827272438,0.5672745277168724,C,1053,Correct
2,relearn,9,224,B,36.77238297069947,58.57139389695359,1.8386191485349734,0.9200373038859172,C,892,Incorrect
2,relearn,9,225,B,45.66271786949477,75.25534211945865,2.2831358934747383,1.1821081497293893,D,831,Incorrect
2,relearn,9,226,D,61.69443169137526,12.327689755586103,3.0847215845687628,0.1936428978594173,D,998,Correct
2,relearn,9,227,A,21.101888252303745,44.26806460720323,1.0550944126151873,0.6953611327931399,A,837,Correct
2,relearn,9,228,A,43.446782024247064,48.49799095288741,2.172339101212353,0.7618046604572767,C,1982,Incorrect
2,relearn,9,229,D,34.846376842190324,36.99871341733385,1.7423188421095162,0.5811744313208507,C,1132,Incorrect
2,relearn,9,230,D,67.88930983287906,43.61062429552193,3.3944654916439534,0.6850340845263813,C,1222,Incorrect
2,relearn,9,231,B,68.72697972556301,62.80201191821968,3.4363489862781504,0.9864916963646878,B,2549,Correct
2,relearn,9,232,D,42.841519207931434,12.164783383629901,2.1420759603965718,0.19108397055261442,D,836,Correct
2,relearn,9,233,B,42.90471814471017,89.40453997133926,2.1452359072355085,1.4043632298576723,B,808,Correct
2,relearn,9,234,C,83.1547253435694,59.356529075433286,4.1577362671784694,0.9323701784298508,C,917,Correct
2,relearn,9,235,D,49.73806343789456,31.66722502591565,2.486903171894728,0.49742760750495724,C,3302,Incorrect
2,relearn,9,236,D,33.11839793261979,24.249310260618245,1.6559198966309896,0.38090727484688924,D,923,Correct
2,relearn,9,237,B,53.10996966386682,59.23064549116366,2.655498483193341,0.9303928037121059,C,1391,Incorrect
2,relearn,9,238,C,93.26779720739233,45.01390739891175,4.663389860369617,0.7070768039689618,C,603,Correct
2,relearn,9,239,B,40.87902489561938,50.67161192765785,2.043951244780969,0.7959478188874141,B,1944,Correct
2,relearn,9,240,A,20.61788254576309,46.85416664551231,1.0308941272881547,0.7359835286180669,A,714,Correct
2,relearn,9,241,A,26.502078442209818,39.596729075520145,1.325103922110491,0.6219839658491974,A,1118,Correct
2,relearn,9,242,B,53.995205319742226,58.73524139510366,2.6997602659871114,0.9226110143684038,C,1286,Incorrect
2,relearn,9,243,B,39.403260845681956,88.39748135942818,1.9701630422840979,1.3885443901731014,B,822,Correct
2,relearn,9,244,D,44.47898892987508,31.516872385200774,2.2239494464937537,0.4950658737473689,D,1175,Correct
2,relearn,9,245,C,89.96876458050902,53.05467379691564,4.49843822902545,0.8333808671949654,C,1804,Correct
2,relearn,9,246,B,35.883700167217086,61.29414432284922,1.7941850083608544,0.9628061675636782,B,2259,Correct
2,relearn,9,247,B,55.67412624267652,56.016532764692585,2.783706312133826,0.8799056390656508,B,1734,Correct
2,relearn,9,248,B,53.226618138844046,48.42856596167112,2.6613309069422026,0.7607141352453736,B,1575,Correct
2,relearn,9,249,C,83.33496369642369,54.00358367387149,4.166748184821184,0.8482863086867819,C,955,Correct
2,relearn,9,250,B,27.39676263561699,70.55134217519854,1.3698381317808495,1.1082178913925174,A,1312,Incorrect
2,relearn,9,251,A,36.92074386253224,42.04269091477363,1.8460371931266122,0.6604050445749958,D,1612,Incorrect
2,relearn,9,252,D,27.18889012280941,23.83359019356566,1.3594445061404707,0.37437715930387805,A,1101,Incorrect
2,relearn,9,253,D,50.68470510447189,20.161816167076744,2.5342352552235945,0.31670106776758106,D,1478,Correct
2,relearn,9,254,C,50.817905296708275,54.968795708828516,2.5408952648354135,0.863447823877669,B,2846,Incorrect
2,relearn,9,255,D,70.85119504863412,30.153975531975576,3.542559752431706,0.4736575400389042,C,1133,Incorrect
2,relearn,9,256,C,89.97332446207118,45.05938032484977,4.498666223103559,0.7077910910192825,C,685,Correct
2,relearn,9,257,C,81.63809044368122,74.63114827811043,4.081904522184061,1.1723033357974113,C,716,Correct
2,relearn,9,258,B,37.96714404298235,88.57711491128018,1.8983572021491173,1.3913660674072836,B,1261,Correct
2,relearn,9,259,C,88.11767605064314,50.651048366099666,4.4058838025321565,0.7956248072177999,C,901,Correct
2,relearn,9,260,A,33.72999209955977,54.29074372278172,1.6864996049779888,0.8527970081870861,B,1526,Incorrect
2,relearn,9,261,D,54.59260692743342,9.23209885747447,2.7296303463716707,0.14501746973928262,D,1021,Correct
2,relearn,9,262,C,52.204814999525084,54.3765665609405,2.610240749976254,0.8541451101764354,B,2600,Incorrect
2,relearn,9,263,C,67.4079276867667,33.34253448534542,3.370396384338335,0.5237433069561276,B,1725,Incorrect
2,relearn,9,264,D,40.95623398374803,46.7288151567374,2.0478116991874016,0.7340145120368079,A,1571,Incorrect
2,relearn,9,265,B,71.04877243876288,74.97118086409678,3.5524386219381436,1.1776445551679906,C,1335,Incorrect
2,relearn,9,266,C,50.9123596371696,59.07046364351074,2.54561798185848,0.9278766731329815,B,3479,Incorrect
2,relearn,9,267,C,51.71355357944053,54.55422238509779,2.5856776789720266,0.8569357213366353,C,1254,Correct
2,relearn,9,268,C,82.51790117829022,25.153091745762442,4.125895058914511,0.3951038412177868,C,950,Correct
2,relearn,9,269,A,36.817218514589435,68.79012842442866,1.8408609257294717,1.0805528104884174,B,2388,Incorrect
2,relearn,9,270,D,61.212702740880566,16.827145808524598,3.0606351370440286,0.2643201882647258,D,1020,Correct
2,relearn,9,271,B,53.346882547155694,68.23806428840278,2.6673441273577847,1.071881007318171,B,1345,Correct
2,relearn,9,272,B,44.55267349629481,81.98548474155518,2.2276336748147405,1.2878249828253392,B,2700,Correct
2,relearn,9,273,C,94.54626433260563,48.288291612052355,4.727313216630281,0.7585107109141265,C,1613,Correct
2,relearn,9,274,B,69.15510094961633,66.28523546341981,3.4577550474808163,1.0412060438667465,C,1751,Incorrect
2,relearn,9,275,C,78.50714096862032,40.089892933660295,3.925357048431016,0.6297305656179427,C,2532,Correct
2,relearn,9,276,D,67.44447161216225,40.750595947764,3.3722235806081127,0.6401088642945069,C,1711,Incorrect
2,relearn,9,277,B,47.56807356021938,57.568521157883204,2.378403678010969,0.9042842157381723,B,1263,Correct
2,relearn,9,278,D,39.99544366572176,42.624684548842204,1.9997721832860877,0.6695469792011252,C,1452,Incorrect
2,relearn,9,279,C,78.76670448012824,49.57416270323337,3.938335224006412,0.7787091267817154,C,710,Correct
2,relearn,9,280,C,83.81612250584952,47.60975636242607,4.190806125292476,0.7478523041369881,C,1278,Correct
2,relearn,9,281,D,50.65338578285501,32.01465582217152,2.532669289142751,0.5028850376906988,A,1900,Incorrect
2,relearn,9,282,B,42.975890227075105,82.623854419459,2.148794511353755,1.2978524702772247,B,925,Correct
2,relearn,9,283,A,28.637466405708768,61.49286395465689,1.4318733202854383,0.9659276482407333,A,784,Correct
2,relearn,9,284,D,32.95750558159257,37.9973116338136,1.6478752790796285,0.596860375424754,D,2236,Correct
2,relearn,9,285,B,45.6047494150477,92.59304528935358,2.280237470752385,1.454448154272701,B,1310,Correct
2,relearn,9,286,A,1.3305374887884014,42.18630778567295,0.06652687443942007,0.6626609731077402,A,783,Correct
2,relearn,9,287,D,33.27983138898609,22.875305100309504,1.6639915694493044,0.3593244522587874,C,4076,Incorrect
2,relearn,9,288,A,12.011489963088936,48.55663234959369,0.6005744981544467,0.7627257973627203,A,701,Correct
2,relearn,9,289,B,35.845113926135724,83.3568917829759,1.7922556963067862,1.3093669942573825,B,837,Correct
2,relearn,9,290,A,43.83079105962106,62.1878514470733,2.191539552981053,0.9768444862432943,B,3059,Incorrect
2,relearn,9,291,B,33.36377983533886,72.22197400480724,1.6681889917669428,1.1344601148062772,A,1255,Incorrect
2,relearn,9,292,D,51.7431122942558,16.309534496274765,2.58715561471279,0.2561895687848305,D,912,Correct
2,relearn,9,293,C,85.63146575500232,35.20417459041867,4.281573287750116,0.5529858813447588,C,957,Correct
2,relearn,9,294,A,11.797159995637573,71.13095922668145,0.5898579997818786,1.1173224947466878,A,845,Correct
2,relearn,9,295,A,-1.75071577220071,48.22444256945736,-0.0875357886100355,0.7575077724983506,A,503,Correct
2,relearn,9,296,C,60.31772683142961,35.202259879781906,3.01588634157148,0.5529558051404078,C,1020,Correct
2,relearn,9,297,D,58.66899575126054,35.21719359919758,2.9334497875630268,0.5531903834564429,D,2809,Correct
2,relearn,9,298,D,64.30363489122482,38.358068604937706,3.215181744561241,0.6025271326758279,C,1884,Incorrect
2,relearn,9,299,D,76.30297361931977,24.019717781449398,3.8151486809659887,0.3773008446175078,C,806,Incorrect
2,relearn,9,300,B,54.539709865862534,82.8562828850321,2.7269854932931263,1.3015034480768728,B,973,Correct
2,relearn,9,301,D,52.25425257342383,50.64743751864793,2.6127126286711917,0.795568088158662,C,2068,Incorrect
2,relearn,9,302,B,40.14916397906541,75.05512662120272,2.0074581989532705,1.178963172037111,B,1022,Incorrect
2,relearn,9,303,C,67.50079604220456,57.61675675562337,3.375039802110228,0.9050418987356824,C,1733,Incorrect
2,relearn,9,304,C,93.11432213902458,31.513267344681992,4.655716106951229,0.49500924590332035,C,877,Incorrect
2,relearn,9,305,C,48.49051772798511,47.71359339943347,2.4245258863992554,0.7494833725001531,D,5097,Incorrect
2,relearn,9,306,C,60.75406839499992,46.8349048245364,3.037703419749996,0.7356809646417035,C,1291,Incorrect
2,relearn,9,307,A,8.20677206631306,44.48248146836049,0.4103386033156531,0.6987291849722271,A,604,Incorrect
2,relearn,9,308,C,57.41350094606838,39.45034932798671,2.8706750473034193,0.6196846381517703,A,532,Incorrect
2,relearn,9,309,C,82.40940601868921,59.422896507459626,4.1204703009344605,0.9334126756143086,C,1589,Incorrect
2,relearn,9,310,D,68.55738560578445,23.92620088815467,3.4278692802892228,0.3758318846927015,D,2711,Incorrect
2,relearn,9,311,C,100.0394403500246,57.25454219593697,5.00197201750123,0.8993522457370119,D,942,Incorrect
2,relearn,9,312,A,33.036429612481314,55.836845547246725,1.6518214806240656,0.8770831188542914,B,2687,Incorrect
2,relearn,9,313,B,55.01808420241914,82.87889346030133,2.750904210120957,1.3018586141626687,B,1045,Correct
2,relearn,9,314,C,67.2337372920042,65.96733909020888,3.36168686460021,1.036212539313335,C,2070,Correct
2,relearn,9,315,C,91.10846586001897,44.35832150344093,4.555423293000948,0.6967788848039209,C,3349,Incorrect
2,relearn,9,316,D,33.388959241567534,45.20916570669861,1.6694479620783766,0.7101439142954399,A,1149,Incorrect
2,relearn,9,317,C,78.14531722367987,35.13972400457362,3.907265861183993,0.551973493909707,C,1069,Incorrect
2,relearn,9,318,B,58.94755648243924,79.97675181818444,2.947377824121962,1.256271879849912,B,1727,Incorrect
2,relearn,9,319,A,0.4253329239587593,56.52352674539276,0.021266646197937965,0.8878694818915605,A,1230,Correct
2,relearn,9,320,A,36.68340780099869,33.013485511446525,1.8341703900499342,0.5185746177607674,B,2589,Incorrect
2,relearn,9,321,D,64.77748115493644,5.435609404600918,3.2388740577468216,0.08538235286638915,D,1229,Incorrect
2,relearn,9,322,A,13.173517734596283,35.41621151695821,0.6586758867298141,0.5563165495982906,A,1191,Correct
2,relearn,9,323,A,17.01036295030601,57.819872574732315,0.8505181475153006,0.9082324345613851,B,1942,Incorrect
2,relearn,9,324,D,53.38686013758672,5.816914938120743,2.6693430068793362,0.09137188618078426,D,1348,Correct
2,relearn,9,325,D,66.40729462368714,43.8371384337151,3.3203647311843567,0.6885921602887907,B,1104,Incorrect
2,relearn,9,326,B,59.21438532923035,97.76726897796283,2.960719266461518,1.5357246699135265,B,1100,Correct
2,relearn,9,327,D,41.416868253627406,19.39697768994811,2.0708434126813704,0.30468701306293045,D,1766,Incorrect
2,relearn,9,328,A,46.29564055123709,36.68632803733253,2.3147820275618547,0.5762674932463456,C,1230,Incorrect
2,relearn,9,329,B,51.51475417387989,70.24836435467135,2.5757377086939948,1.1034587269166731,B,1023,Correct
2,relearn,9,330,A,38.59467958755294,38.70995624963251,1.9297339793776471,0.608054570873139,B,1677,Correct
2,relearn,9,331,C,74.89024125169661,53.93835316414443,3.74451206258483,0.8472616702360395,C,1334,Incorrect
2,relearn,9,332,B,51.46061374203077,98.38347385215937,2.5730306871015385,1.545403993442937,B,900,Incorrect
2,relearn,9,333,A,24.83155079312223,55.75126482564799,1.2415775396561115,0.875738820022974,A,2711,Incorrect
2,relearn,9,334,C,65.85034171789405,69.59131962131039,3.2925170858947026,1.0931378923796398,B,3876,Incorrect
2,relearn,9,335,A,39.30673840898757,71.49209980120601,1.9653369204493785,1.1229952776258856,C,684,Incorrect
2,relearn,9,336,C,90.246908890308,28.40989271670139,4.5123454445154,0.4462615512403163,C,3472,Incorrect
2,relearn,9,337,A,16.005315009037844,60.91555019636022,0.8002657504518922,0.9568592249313279,A,1421,Incorrect
2,relearn,9,338,C,77.78514188121864,63.68659223089882,3.8892570940609317,1.0003866514238025,C,4223,Incorrect
2,relearn,9,339,A,1.7764141854814675,49.430784817643165,0.08882070927407337,0.7764569522214283,A,710,Incorrect
2,relearn,9,340,C,69.73255548601661,35.07771864877226,3.4866277743008305,0.5509995160583631,B,1188,Correct
2,relearn,9,341,A,48.102309659874436,42.32267772798899,2.405115482993722,0.6648030671524928,B,884,Incorrect
2,relearn,9,342,C,63.01150130599258,68.90363655558448,3.1505750652996287,1.0823357920432266,C,1709,Incorrect
2,relearn,9,343,A,30.61397802474296,47.92025491021093,1.530698901237148,0.7527296039203443,D,1359,Incorrect
2,relearn,9,344,B,75.38279571374338,67.06508322379324,3.7691397856871687,1.0534558638412845,B,981,Incorrect
2,relearn,9,345,A,30.721672662029384,60.53287485482811,1.5360836331014693,0.9508481747229914,B,1710,Incorrect
2,relearn,9,346,B,70.23506027883518,89.68521263760135,3.511753013941759,1.4087720257896346,B,975,Incorrect
2,relearn,9,347,A,-0.9002636823311789,43.06912228723699,-0.04501318411655895,0.6765281908707207,A,660,Incorrect
2,relearn,9,348,A,14.518684818731057,30.835586414177,0.7259342409365529,0.48436425873955846,A,982,Incorrect
2,relearn,9,349,B,37.225544892407676,90.00741511400074,1.8612772446203838,1.4138331704537581,B,966,Correct
2,relearn,9,350,D,41.87606876993619,49.89517948503374,2.0938034384968094,0.7837516465986307,C,1032,Incorrect
2,relearn,9,351,C,71.68777367174044,32.97508969567551,3.5843886835870222,0.5179714976969934,D,950,Incorrect
2,relearn,9,352,C,76.51280203838498,24.789003072202252,3.8256401019192485,0.3893847497072271,D,1415,Correct
2,relearn,9,353,D,30.384685999476897,28.742426876392464,1.5192342999738448,0.45148498560608186,D,995,Correct
2,relearn,9,354,A,43.76029068644002,40.00872724932097,2.188014534322001,0.6284556180297227,D,1127,Incorrect
2,relearn,9,355,B,47.345135069633066,58.48816774945448,2.3672567534816533,0.9187299906180684,C,780,Incorrect
2,relearn,9,356,C,91.80310228420672,57.297682576257216,4.590155114210336,0.9000298932464478,C,1019,Incorrect
2,relearn,9,357,C,82.48578422419924,31.13576430406442,4.124289211209962,0.4890794420077605,B,893,Incorrect
2,relearn,9,358,C,64.50181959212753,50.633648415316635,3.2250909796063763,0.795351489430036,D,1247,Incorrect
2,relearn,9,359,D,44.67620439665001,48.62562596369882,2.2338102198325003,0.7638095465188066,A,589,Incorrect
2,relearn,9,360,B,56.7462369455297,96.94802880929355,2.837311847276485,1.522856075436441,B,944,Incorrect
2,relearn,9,361,A,35.2267327205209,28.869427829529254,1.761336636026045,0.4534799119129491,A,1941,Correct
2,relearn,9,362,C,87.65601708225434,68.83043066344206,4.382800854112717,1.0811858765784559,C,973,Incorrect
2,relearn,9,363,B,42.52172716484616,55.217453144251394,2.126086358242308,0.867353725739594,A,493,Incorrect
2,relearn,9,364,A,37.15563042487245,71.45458149660686,1.8577815212436224,1.1224059414753664,B,638,Incorrect
2,relearn,9,365,A,26.70450458054319,63.01947061993506,1.3352252290271596,0.989907529663529,C,671,Incorrect
2,relearn,9,366,A,47.41020744840982,44.97898836770844,2.3705103724204912,0.706528297109468,C,1139,Correct
2,relearn,9,367,D,44.46106424736617,43.99499840654282,2.223053212368308,0.6910718189434479,B,2839,Incorrect
2,relearn,9,368,B,36.451123918344884,65.63225762516952,1.822556195917244,1.030949091968726,D,1006,Incorrect
2,relearn,9,369,B,59.85953356111134,57.64786919839575,2.9929766780555673,0.905530611843927,C,924,Incorrect
2,relearn,9,370,A,30.114848073288766,69.0750626697049,1.5057424036644382,1.0850285471469976,B,1894,Correct
2,relearn,9,371,D,49.39708605529456,-0.4874879913741843,2.4698543027647277,-0.00765744346207191,D,1524,Correct
2,relearn,9,372,A,25.78293038220858,24.55928970213693,1.289146519110429,0.3857764205280842,D,1815,Correct
2,relearn,9,373,A,34.74243281209333,70.59749983234971,1.7371216406046666,1.1089429341755828,B,892,Incorrect
2,relearn,9,374,B,47.37639728596533,75.65540802979677,2.3688198642982665,1.188392370353739,B,2501,Incorrect
2,relearn,9,375,B,49.83758095884633,51.87708043198201,2.4918790479423167,0.8148832738740074,B,1830,Correct
2,relearn,9,376,C,86.03282718226075,35.766829863609715,4.301641359113037,0.5618240497085616,C,923,Incorrect
2,relearn,9,377,A,38.1064960406449,32.30740566683756,1.905324802032245,0.5074835414974106,B,1032,Incorrect
2,relearn,9,378,C,72.89193823526482,50.749669540576924,3.644596911763241,0.7971739450039308,B,1011,Correct
2,relearn,9,379,A,30.91299335702278,52.61923744636037,1.545649667851139,0.8265410489949134,B,1280,Incorrect
2,relearn,9,380,B,74.48452104778957,64.50630426076862,3.724226052389479,1.0132626578792931,C,923,Incorrect
2,relearn,9,381,B,34.782954099629464,70.32364990574263,1.7391477049814734,1.1046413095875078,B,1373,Incorrect
2,relearn,9,382,B,51.46982533582227,57.63976771573395,2.5734912667911134,0.9054033540518595,B,1598,Incorrect
2,relearn,9,383,A,50.81816722424458,49.18650001920255,2.540908361212229,0.7726197355806047,B,3646,Incorrect
2,relearn,9,384,C,100.18282935074346,55.77661456962933,5.009141467537173,0.8761370128702846,C,861,Correct
2,relearn,9,385,C,72.99954085127432,56.806592155695625,3.649977042563716,0.8923158629590245,C,1095,Incorrect
2,relearn,9,386,B,65.56281985747259,91.927239262763,3.2781409928736296,1.443989697663437,B,1694,Correct
2,relearn,9,387,D,28.787585846708467,34.484504491813006,1.4393792923354232,0.5416813298708198,A,1235,Incorrect
2,relearn,9,388,C,49.83295552171583,49.73035830061789,2.4916477760857916,0.7811626414880466,C,903,Incorrect
2,relearn,9,389,D,68.90375185783738,28.783994218247244,3.445187592891869,0.45213792388508317,B,1413,Incorrect
2,relearn,9,390,B,28.721917970205283,71.30712472857412,1.436095898510264,1.1200896959794977,A,2334,Incorrect
2,relearn,9,391,D,24.793173657852265,25.001566454083637,1.2396586828926133,0.39272368750193076,A,756,Incorrect
2,relearn,9,392,C,78.44769736262997,24.820005179809687,3.9223848681314983,0.3898717296747536,D,2663,Incorrect
2,relearn,9,393,D,72.80287788136415,29.414232156730833,3.640143894068208,0.4620376782728512,C,1422,Correct
2,relearn,9,394,D,38.961094320120026,31.801242960680398,1.9480547160060013,0.4995327563014883,C,1270,Incorrect
2,relearn,9,395,A,47.11739463402852,38.728052784981,2.3558697317014263,0.6083388305856703,B,741,Incorrect
2,relearn,9,396,B,48.924514741592894,97.05061020091033,2.446225737079645,1.5244674201679327,D,2215,Incorrect
2,relearn,9,397,C,53.77500525456266,34.85358332443005,2.688750262728133,0.5474788066165458,B,2899,Incorrect
2,relearn,9,398,C,86.0854395910404,59.24611787944203,4.30427197955202,0.93063584341885,C,784,Incorrect
2,relearn,9,399,D,51.80515352241452,36.69820937415786,2.5902576761207263,0.5764541248487721,A,2531,Incorrect
2,relearn,9,400,D,54.69856790272426,32.98054951502793,2.7349283951362127,0.5180572603388308,D,4126,Incorrect
2,relearn,9,401,B,58.16779151165233,67.24301322557754,2.9083895755826163,1.0562507817735785,B,1638,Incorrect
2,relearn,9,402,C,90.72495478088976,71.1845825368135,4.536247739044488,1.118164807732548,C,1264,Correct
2,relearn,9,403,B,42.23324676209483,73.21308654937255,2.1116623381047415,1.1500284742507125,B,2325,Incorrect
2,relearn,9,404,A,9.64137929220012,64.71454631880914,0.48206896461000603,1.0165337164778359,A,734,Incorrect
2,relearn,9,405,A,36.817990258981325,56.92993999138854,1.8408995129490662,0.8942534062312701,A,878,Incorrect
2,relearn,9,406,B,41.722196369497176,58.607326611475045,2.0861098184748585,0.920601733645738,B,1987,Incorrect
2,relearn,9,407,D,35.146221482338305,38.49140429661246,1.7573110741169153,0.6046215648229615,B,1141,Correct
2,relearn,9,408,B,48.190504279595736,80.18793637995911,2.4095252139797867,1.2595891591890263,B,1334,Correct
2,relearn,9,409,C,77.34281153801525,56.32962077807232,3.8671405769007627,0.8848236140794549,C,1324,Correct
2,relearn,9,410,D,50.4821736506147,7.360553197061414,2.524108682530735,0.11561929925122502,D,1360,Incorrect
2,relearn,9,411,D,45.33043459832029,8.27074058211598,2.2665217299160143,0.12991648926261265,D,1244,Incorrect
2,relearn,9,412,A,4.989744222249847,58.53457976292725,0.24948721111249234,0.91945902882089,A,784,Incorrect
2,relearn,9,413,A,5.864189245798215,55.637836862393144,0.29320946228991074,0.8739570977426085,B,2149,Correct
2,relearn,9,414,C,82.08595138299067,35.770196928438345,4.104297569149534,0.5618769394392105,C,3318,Incorrect
2,relearn,9,415,A,41.7413469845003,40.377433877863794,2.087067349225015,0.6342472482075227,B,1802,Incorrect
2,relearn,9,416,A,17.5614043184426,50.14268864086275,0.8780702159221301,0.7876395113268739,A,1000,Incorrect
2,relearn,9,417,C,74.82026658707734,26.090417139706975,3.7410133293538674,0.4098273140759833,D,2260,Incorrect
2,relearn,9,418,A,1.6103299195659808,50.20783619820536,0.08051649597829905,0.7886628467646083,A,975,Incorrect
2,relearn,9,419,A,29.628964872465282,75.52655472309723,1.481448243623264,1.1863683473451487,B,3052,Incorrect
2,relearn,9,420,C,80.99347774424713,56.318995022040745,4.049673887212356,0.8846567050940166,C,1716,Correct
2,relearn,9,421,B,57.303278926116946,85.87107722606336,2.8651639463058474,1.3488597268462124,B,1065,Correct
2,relearn,9,422,B,65.18253043008788,81.50847739574304,3.2591265215043936,1.2803321689587803,B,1978,Incorrect
2,relearn,9,423,C,90.76147848757344,47.40655198839358,4.538073924378672,0.7446603772937994,C,1329,Incorrect
2,relearn,9,424,A,3.5075882428106233,38.714691082899265,0.17537941214053115,0.6081289454601729,A,1125,Incorrect
2,relearn,9,425,D,54.060819357551296,4.452248461172815,2.7030409678775644,0.06993575528788488,D,940,Correct
2,relearn,9,426,B,54.26606339629754,91.97983331575833,2.713303169814877,1.4448158431160003,B,951,Incorrect
2,relearn,9,427,C,63.868813003842476,53.129990209023596,3.193440650192124,0.8345639346298308,C,1094,Incorrect
2,relearn,9,428,D,65.4704384116682,46.75305963132103,3.2735219205834096,0.7343953433530184,C,540,Incorrect
2,relearn,9,429,B,54.56295338382936,97.65908697464019,2.728147669191468,1.5340253509790815,C,1957,Incorrect
2,relearn,9,430,B,43.02441280321547,54.250330606546726,2.151220640160773,0.8521622004417235,B,829,Incorrect
2,relearn,9,431,D,71.72728307595872,11.41042427932984,3.5863641537979363,0.17923452545142618,D,1222,Incorrect
2,relearn,9,432,B,38.62938629362914,84.27846987685798,1.9314693146814568,1.3238431091046285,B,1774,Correct
2,relearn,9,433,D,64.25508870630634,7.05963885406798,3.2127544353153166,0.11089254780468516,C,1307,Incorrect
2,relearn,9,434,B,35.57650401575172,63.50220933692266,1.778825200787586,0.997490371697987,B,2599,Correct
2,relearn,9,435,A,45.15230448457889,63.25475261567251,2.2576152242289447,0.9936033306101826,A,4069,Correct
2,relearn,9,436,B,34.4011242875774,78.0772003406024,1.7200562143788702,1.226433795014475,A,1141,Incorrect
2,relearn,9,437,A,26.052277565965966,35.95408312221032,1.3026138782982983,0.5647654170164635,A,1712,Incorrect
2,relearn,9,438,D,75.992714611397,27.642684668037155,3.7996357305698503,0.43421027539302365,C,1035,Incorrect
2,relearn,9,439,D,49.08347007083729,7.973804973078487,2.4541735035418646,0.12525223562290566,D,1247,Incorrect
2,relearn,9,440,C,92.52443633241107,37.86284243944013,4.6262218166205535,0.5947481382588647,C,1308,Incorrect
2,relearn,9,441,C,61.019382632239044,44.050823563583705,3.0509691316119523,0.6919487184596735,B,735,Correct
2,relearn,9,442,D,57.05269922849814,18.44419290779198,2.852634961424907,0.2897207047025613,B,893,Incorrect
2,relearn,9,443,B,52.61830312438727,66.94086723961584,2.630915156219363,1.0515046837245339,B,575,Correct
2,relearn,9,444,B,24.375346273706874,80.95204406374852,1.2187673136853436,1.2715917346187477,B,844,Correct
2,relearn,9,445,D,43.57953727559822,7.875293763114595,2.178976863779911,0.12370482515531164,D,1692,Incorrect
2,relearn,9,446,B,48.84327791099393,56.724802945575824,2.442163895549697,0.8910311210507482,B,1231,Incorrect
2,relearn,9,447,B,60.78718205012322,88.9115128894999,3.0393591025061606,1.3966187785660356,B,1500,Incorrect
2,relearn,9,448,D,40.260809150117176,32.16855678066078,2.0130404575058587,0.5053025082935502,B,2262,Incorrect
2,relearn,9,449,A,33.68421258078486,52.2329618100262,1.684210629039243,0.8204734454880724,A,1126,Correct
2,relearn,9,450,D,72.76168734943369,37.70569470339914,3.6380843674716847,0.5922796673934916,C,1759,Incorrect
2,relearn,9,451,D,41.890285511760254,48.73202563512658,2.0945142755880126,0.7654808686493157,A,814,Incorrect
2,relearn,9,452,D,64.29684096632153,23.669969533843314,3.214842048316076,0.37180701199108185,C,3283,Correct
2,relearn,9,453,D,61.67930010260466,15.411155154742909,3.0839650051302328,0.24207785908736398,C,1206,Incorrect
2,relearn,9,454,A,8.319086946129861,39.54490971494502,0.415954347306493,0.6211699892367146,A,1141,Incorrect
2,relearn,9,455,C,85.57021334639687,70.12057258622963,4.278510667319844,1.1014513785120443,B,2222,Correct
2,relearn,9,456,D,41.175157407266234,0.6942764486826576,2.0587578703633116,0.010905668953709239,D,2671,Correct
2,relearn,9,457,C,87.89297652996927,28.164784505598234,4.394648826498464,0.4424114004636352,A,2431,Incorrect
2,relearn,9,458,B,54.842499413766674,100.371557631764,2.7421249706883337,1.5766327404265716,B,1573,Correct
2,relearn,9,459,C,97.90264089089045,59.82920908389015,4.895132044544522,0.9397950186401849,A,2325,Correct
2,relearn,9,460,A,26.93753510878501,28.4344988596352,1.3468767554392505,0.44664806362968656,A,1071,Incorrect
2,relearn,9,461,A,28.756559731172395,47.03297044527438,1.4378279865586197,0.7387921721368992,D,1096,Correct
2,relearn,9,462,A,24.92010271947005,50.541345794008414,1.2460051359735025,0.793901603244991,A,2851,Incorrect
2,relearn,9,463,D,60.238530254440235,25.977298565630516,3.0119265127220114,0.4080504516694676,B,1788,Incorrect
2,relearn,9,464,B,48.8400088496484,80.7067599324342,2.4420004424824198,1.2677388204938516,B,1014,Incorrect
2,relearn,9,465,C,92.69557474188227,37.637242804414925,4.634778737094114,0.5912044274786261,A,1958,Incorrect
2,relearn,9,466,C,80.27787932173344,74.71515513319765,4.013893966086672,1.173622912391377,C,2486,Incorrect
2,relearn,9,467,B,58.951989350201025,85.54309935310192,2.9475994675100514,1.343707862465034,B,528,Incorrect
2,relearn,9,468,D,32.2515561920539,33.86332119202841,1.6125778096026948,0.53192380541514,A,1589,Incorrect
2,relearn,9,469,B,53.745463000068575,77.6405521906541,2.6872731500034286,1.2195749419140691,B,2295,Incorrect
2,relearn,9,470,B,71.04204033145835,82.59118805690996,3.5521020165729174,1.297339348254207,B,2005,Incorrect
2,relearn,9,471,D,29.52775698124504,10.890770997357095,1.476387849062252,0.17107183078612917,D,588,Incorrect
2,relearn,9,472,A,28.233072808840788,62.49604913561758,1.4116536404420394,0.9816856442142148,C,589,Incorrect
2,relearn,9,473,C,64.85273205131529,52.19715716633999,3.2426366025657645,0.8199110274602278,D,727,Incorrect
2,relearn,9,474,D,25.814542350799876,18.166978213834525,1.290727117539994,0.28536622647254184,D,1636,Correct
2,relearn,9,475,C,75.92819840595332,55.06055051688393,3.796409920297666,0.864889105032261,C,1509,Correct
2,relearn,9,476,C,97.20683817067803,47.421543510207165,4.860341908533901,0.7448958635677779,C,678,Incorrect
2,relearn,9,477,A,31.646648441023505,56.5762138608341,1.5823324220511754,0.8886970891656072,A,1151,Incorrect
2,relearn,9,478,C,82.80309763656332,35.45930737854994,4.140154881828166,0.5569934978091742,C,1428,Incorrect
2,relearn,9,479,C,97.49428420008562,51.290323118901064,4.8747142100042815,0.8056665115529315,C,846,Correct
2,relearn,9,480,D,32.15825189520811,14.635032539455503,1.6079125947604056,0.2298865535550049,D,2254,Incorrect
2,relearn,9,481,B,37.24775399342347,92.7349807155841,1.8623876996711737,1.4566776707343507,B,1196,Correct
2,relearn,9,482,A,3.455278561559467,63.46706680459842,0.17276392807797336,0.9969383540910951,A,1086,Correct
2,relearn,9,483,A,11.265143238795517,44.02360551191835,0.5632571619397758,0.691521178303889,A,807,Correct
2,relearn,9,484,D,42.40491464081006,22.230920130243803,2.120245732040503,0.3492024768185769,A,573,Incorrect
2,relearn,9,485,A,37.6146381604062,65.85964873187721,1.88073190802031,1.034520943120349,A,1551,Incorrect
2,relearn,9,486,B,63.92640068938593,68.37074707213566,3.1963200344692964,1.0739651836113362,C,683,Incorrect
2,relearn,9,487,C,71.6514003123351,46.27810694089911,3.582570015616755,0.7269348039378573,C,615,Incorrect
2,relearn,9,488,B,52.6166805115515,60.06960742494136,2.630834025577575,0.9435711869510933,A,1782,Incorrect
2,relearn,9,489,C,60.49203051545132,33.859371521010104,3.024601525772566,0.531861764127864,B,1134,Correct
2,relearn,9,490,B,57.85706351570626,82.81674286646036,2.892853175785313,1.300882354917534,B,1646,Correct
2,relearn,9,491,D,61.373412009972114,38.880811913105774,3.068670600498606,0.6107383653590981,A,1669,Incorrect
2,relearn,9,492,A,37.91014224114194,53.30826304542085,1.8955071120570972,0.837364237795632,C,709,Incorrect
2,relearn,9,493,C,78.6602999805753,69.50988380542174,3.933014999028765,1.0918587015749655,C,1094,Correct
2,relearn,9,494,B,30.48587961368093,89.61623070829894,1.5242939806840465,1.407688460178,D,1014,Correct
2,relearn,9,495,B,36.73521552422002,96.42069329267768,1.836760776211001,1.5145727085115541,D,1365,Incorrect
2,relearn,9,496,C,62.95895078512063,46.71835848890922,3.147947539256031,0.7338502590826578,A,2509,Incorrect
2,relearn,9,497,A,6.714373913133773,69.15818182917616,0.3357186956566886,1.0863341798508348,A,1415,Correct
2,relearn,9,498,C,53.347916587522505,53.81448420325524,2.667395829376125,0.8453159411483532,C,1334,Correct
2,relearn,9,499,C,75.43060148198657,28.27539997424819,3.7715300740993287,0.44414894418205575,B,1302,Incorrect
2,relearn,9,500,A,36.72492086876076,28.803774048067485,1.836246043438038,0.4524486247253457,D,2459,Incorrect
2,relearn,9,501,D,40.747614008308005,27.985211671451566,2.0373807004154,0.4395906769809379,A,646,Correct
2,relearn,9,502,C,56.50419274476006,67.7081975902806,2.8252096372380033,1.0635578806871584,B,1099,Incorrect
2,relearn,9,503,C,54.715357836712435,35.92158296849158,2.735767891835622,0.564254905795647,C,1313,Correct
2,relearn,9,504,A,4.686381244599321,62.736759874363095,0.23431906222996607,0.9854667196566301,A,1188,Incorrect
2,relearn,9,505,B,47.91909468608759,54.20389770573911,2.3959547343043797,0.8514328341414131,C,1444,Correct
2,relearn,9,506,A,33.5330091639758,37.96899753884174,1.67665045819879,0.5964156186609708,C,1358,Correct
2,relearn,9,507,A,9.772384560784024,27.934665925966787,0.4886192280392012,0.4387967062675119,A,1678,Correct
2,relearn,9,508,B,45.634019511126915,89.99182702189589,2.2817009755563458,1.4135883132755578,B,709,Correct
2,relearn,9,509,D,57.91768563919819,32.72730530800473,2.8958842819599098,0.5140793096370895,A,2007,Incorrect
2,relearn,9,510,A,26.61406672827525,59.85181150199595,1.3307033364137626,0.9401500565935577,C,1331,Correct
2,relearn,9,511,C,87.55341531955035,39.86238733928525,4.377670765977518,0.6261569160982466,C,1385,Incorrect
2,relearn,9,512,A,25.56622987478442,59.211964100640216,1.278311493739221,0.9300993571159694,C,1309,Incorrect
2,relearn,9,513,D,48.743789607935945,25.37963298909125,2.4371894803967975,0.39866234274667117,A,2892,Correct
2,relearn,9,514,B,45.81018778974803,79.6276511570379,2.2905093894874016,1.2507882194878053,B,1638,Incorrect
2,relearn,9,515,D,31.291363712222193,16.376759907255753,1.5645681856111096,0.2572455430711927,A,974,Incorrect
2,relearn,9,516,D,45.41625491289524,26.584600286078103,2.2708127456447618,0.4175899247868204,A,1838,Incorrect
2,relearn,9,517,C,60.85966601712804,46.280919608674864,3.042983300856402,0.7269789852199638,C,1655,Incorrect
2,relearn,9,518,A,46.89634645883069,52.78018810607102,2.3448173229415348,0.8290692560456004,A,2134,Incorrect
2,relearn,9,519,B,40.378065605505704,89.34406236998055,2.018903280275285,1.4034132499169958,D,989,Incorrect
2,relearn,9,520,A,22.22659519189663,29.84085032288147,1.1113297595948317,0.4687389807561851,A,1334,Incorrect
2,relearn,9,521,A,41.364513219839424,41.33045556487788,2.068225660991971,0.6492172778606987,B,1479,Incorrect
2,relearn,9,522,C,57.400218717201426,44.08344548818264,2.8700109358600714,0.6924611424530035,C,1387,Incorrect
2,relearn,9,523,A,18.253475663238845,55.5006260040936,0.9126737831619423,0.8718017946204754,C,880,Incorrect
2,relearn,9,524,B,60.855237549861684,52.86886598763171,3.042761877493084,0.8304622049518353,C,1276,Incorrect
2,relearn,9,525,A,32.3937235742142,74.28563231723095,1.61968617871071,1.1668759837754263,C,1460,Incorrect
2,relearn,9,526,B,61.03083502729122,89.02508189096665,3.051541751364561,1.3984027162694528,D,724,Incorrect
2,relearn,9,527,C,77.7048734080869,34.237497154653546,3.8852436704043445,0.5378013476918051,C,936,Incorrect
2,relearn,9,528,A,15.80919702285022,60.82457902986066,0.7904598511425109,0.9554302531895102,A,684,Correct
2,relearn,9,529,D,27.817343470893537,10.491170715021061,1.3908671735446767,0.1647949242293327,A,1288,Incorrect
2,relearn,9,530,B,30.299518894524674,82.30038889605244,1.5149759447262339,1.2927714857171066,A,764,Incorrect
2,relearn,9,531,D,57.155305680079074,19.243726921789477,2.857765284003954,0.3022797556259098,C,2272,Incorrect
2,relearn,9,532,D,57.66561031224877,33.390307494030154,2.8832805156124386,0.5244937236217467,C,1390,Correct
2,relearn,9,533,D,39.6064612766384,21.474437593330943,1.98032306383192,0.33731967691590486,A,1670,Incorrect
2,relearn,9,534,C,51.041378707060225,61.37911187075065,2.5520689353530113,0.9641408346850814,B,2260,Incorrect
2,relearn,9,535,D,33.19741205256486,17.676445707724103,1.6598706026282428,0.27766095988482437,A,3207,Incorrect
2,relearn,9,536,D,45.85911123834207,8.512899561166893,2.292955561917103,0.13372031361054842,A,1212,Incorrect
2,relearn,9,537,A,46.310744972084045,59.644081612789584,2.3155372486042025,0.9368870431242491,C,525,Correct
2,relearn,9,538,C,65.90863236518163,65.57422313736153,3.2954316182590815,1.030037488365964,C,1487,Incorrect
2,relearn,9,539,B,71.33447139362649,65.64453195031587,3.566723569681324,1.0311418966172639,D,1135,Incorrect
2,relearn,9,540,C,82.28464120081804,31.07236418818226,4.114232060040902,0.4880835553162998,A,1341,Incorrect
2,relearn,9,541,C,88.37547345709186,56.241083897140186,4.418773672854593,0.8834328800059141,A,1740,Correct
2,relearn,9,542,C,85.54213086707303,34.366226562895946,4.277106543353651,0.5398234245079816,C,3319,Correct
2,relearn,9,543,B,24.041675166308305,74.22951753421675,1.2020837583154154,1.1659945348250507,B,971,Incorrect
2,relearn,9,544,D,67.59916690460925,21.276000418740928,3.3799583452304627,0.3342026330664493,C,1895,Incorrect
2,relearn,9,545,C,78.45959909932893,39.61783715973917,3.922979954966446,0.6223155308607664,C,998,Correct
2,relearn,9,546,A,22.040223202636373,42.70325493102626,1.1020111601318185,0.670781159878421,A,1117,Incorrect
2,relearn,9,547,B,52.89764608577824,91.3511427926331,2.644882304288912,1.4349403954718414,D,1307,Incorrect
2,relearn,9,548,A,21.747206567546428,50.83626679732757,1.0873603283773214,0.7985342115320749,A,1639,Correct
2,relearn,9,549,B,65.7117960273545,59.18242147402075,3.2855898013677245,0.9296353026221921,C,1432,Incorrect
2,relearn,9,550,D,58.45870974651493,16.213649777569042,2.9229354873257467,0.2546834151454434,D,2590,Correct
2,relearn,9,551,D,45.236438036857706,34.927287674901876,2.261821901842885,0.5486365518464453,A,3396,Incorrect
2,relearn,9,552,B,57.27593258458282,69.01263013677263,2.863796629229141,1.0840478592129723,B,1230,Incorrect
2,relearn,9,553,B,35.87018815549972,82.29701671345208,1.7935094077749858,1.2927185155966874,B,957,Incorrect
2,relearn,9,554,C,63.663981438819725,28.094320923305588,3.183199071940986,0.4413045611012542,A,1212,Incorrect
2,relearn,9,555,B,51.194678364759085,60.506289805281305,2.559733918237954,0.9504305777412336,A,2523,Incorrect
2,relearn,9,556,D,34.00472262768151,8.65995303254541,1.7002361313840755,0.13603022413738655,D,1314,Incorrect
2,relearn,9,557,B,53.55701103535303,88.2019421439943,2.6778505517676514,1.3854728673596224,D,1498,Incorrect
2,relearn,9,558,C,87.43102280721502,60.813340974549064,4.371551140360751,0.9552537262294725,C,2749,Incorrect
2,relearn,9,559,C,70.04007170129674,37.68218163944459,3.5020035850648368,0.5919103250485765,B,1241,Incorrect
2,relearn,9,560,C,81.11309523249308,75.58423194295008,4.0556547616246545,1.1872743389959945,D,1547,Incorrect
2,relearn,9,561,A,7.389532783126647,55.97810323275874,0.36947663915633233,0.8793019893896296,A,900,Incorrect
2,relearn,9,562,B,63.43139482953761,52.671529988080366,3.1715697414768806,0.8273624583194388,B,7581,Correct
2,relearn,9,563,D,76.49318108489258,28.58366009762907,3.824659054244629,0.44899108287709605,C,1110,Incorrect
2,relearn,9,564,C,65.6114099904279,60.537011119184264,3.280570499521395,0.9509131470115645,B,999,Incorrect
2,relearn,9,565,C,59.44202604737505,30.017933988674432,2.9721013023687526,0.4715206044738147,A,2558,Correct
2,relearn,9,566,A,14.471459464070566,28.392746062622823,0.7235729732035283,0.44599221222788193,A,635,Correct
2,relearn,9,567,A,25.05069324601159,58.90344050002231,1.2525346623005795,0.925253079730168,B,1622,Correct
2,relearn,9,568,D,62.530764987386334,17.590363891614835,3.1265382493693163,0.2763087898793417,C,2200,Incorrect
2,relearn,9,569,D,45.933814757300944,9.722410822048209,2.296690737865047,0.15271927206864278,A,636,Incorrect
2,relearn,9,570,A,9.546749674721255,65.47810188841467,0.4773374837360628,1.0285276193182373,A,731,Correct
2,relearn,9,571,A,30.070129688261346,63.44925224212009,1.5035064844130672,0.996658523598051,A,471,Correct
2,relearn,9,572,A,45.11332705781643,58.82745688592077,2.2556663528908216,0.9240595319108948,A,1021,Correct
2,relearn,9,573,A,44.063229310403074,46.98643778491526,2.2031614655201537,0.7380612388172183,A,1140,Incorrect
2,relearn,9,574,C,90.71968499427433,65.73679333871365,4.535984249713716,1.0325911351172663,C,1375,Incorrect
2,relearn,9,575,C,53.30466652479032,51.12911377265694,2.665233326239516,0.8031342410636788,A,1213,Incorrect
2,relearn,9,576,A,38.32693268168492,39.40469738498621,1.916346634084246,0.618967539108008,C,1238,Incorrect
2,relearn,9,577,C,61.266578977606166,59.96306738720781,3.063328948880308,0.9418976599518087,D,590,Incorrect
2,relearn,9,578,C,80.3324854508898,48.27635400973738,4.01662427254449,0.7583231954954556,B,622,Incorrect
2,relearn,9,579,A,33.13065456185462,28.477126481717296,1.6565327280927309,0.44731765675155205,B,1661,Incorrect
2,relearn,9,580,D,55.2807870578427,2.716742040228297,2.764039352892135,0.042674484176398825,D,1197,Incorrect
2,relearn,9,581,A,34.288483363094706,38.33034646960743,1.7144241681547354,0.6020916743923508,A,589,Correct
2,relearn,9,582,D,32.76831001913853,12.72290981688029,1.6384155009569268,0.19985100006498288,A,606,Incorrect
2,relearn,9,583,C,72.5256053736154,31.76584702714979,3.6262802686807705,0.49897675827775484,B,563,Incorrect
2,relearn,9,584,B,34.458197599796975,81.61267209834766,1.7229098799898486,1.2819688555200084,B,1415,Incorrect
2,relearn,9,585,D,36.61808509402737,17.70649829557444,1.8309042547013687,0.27813302483088426,A,1955,Incorrect
2,relearn,9,586,B,52.768703329398335,88.79359658678577,2.638435166469917,1.3947665536143095,B,830,Incorrect
2,relearn,9,587,A,6.60796804147693,44.98558191785888,0.3303984020738465,0.7066318683530365,A,1111,Incorrect
2,relearn,9,588,D,52.383647028204294,10.896466556266184,2.6191823514102146,0.17116129641626357,D,830,Correct
2,relearn,9,589,A,15.02189717118761,56.10348886655504,0.7510948585593806,0.8812715423196302,A,730,Correct
2,relearn,9,590,D,38.306729667602454,30.74791211865771,1.9153364833801225,0.4829870741259981,A,1185,Incorrect
2,relearn,9,591,D,62.657507297022725,47.27427338998062,3.1328753648511363,0.7425825499287928,C,1196,Incorrect
2,relearn,9,592,B,57.59157806338874,59.51467123606001,2.879578903169437,0.9348542696800896,B,1958,Incorrect
2,relearn,9,593,C,64.03348184141348,32.76440883615953,3.201674092070674,0.5146621304944564,A,2340,Incorrect
2,relearn,9,594,D,38.902041873261496,43.37824394547221,1.945102093663075,0.681383862523607,C,1980,Incorrect
2,relearn,9,595,D,71.29639280078297,39.07773267901478,3.5648196400391488,0.613831589516693,C,870,Incorrect
2,relearn,9,596,A,23.38096436904774,51.34984535188334,1.169048218452387,0.8066014846022435,A,718,Incorrect
2,relearn,9,597,B,67.77412002010547,60.12827233498861,3.388706001005273,0.9444926932032331,C,1407,Incorrect
2,relearn,9,598,D,60.695560541371805,33.170621717187196,3.0347780270685907,0.5210429075086067,B,965,Incorrect
2,relearn,9,599,B,54.85124825001823,79.98389772143128,2.742562412500911,1.2563841274356293,B,1244,Incorrect
2,relearn,9,600,C,81.59936901024349,73.30774188103868,4.079968450512174,1.1515153167236394,C,967,Correct
2,relearn,9,601,C,63.03636082050673,33.55685102611679,3.1518180410253365,0.527109783306278,A,3165,Incorrect
2,relearn,9,602,C,48.90756411632128,51.11940571941284,2.445378205816064,0.8029817473199172,B,4990,Incorrect
2,relearn,9,603,D,24.779460113470037,29.464169653659837,1.2389730056735018,0.4628220946403054,A,710,Incorrect
2,relearn,9,604,B,58.36679232438772,83.02307941686168,2.9183396162193858,1.304123481872073,B,1142,Correct
2,relearn,9,605,C,70.80140964021179,35.455550971283486,3.5400704820105893,0.5569344923018134,C,1344,Correct
2,relearn,9,606,A,33.13451207857407,53.885285282096675,1.6567256039287033,0.8464280818941256,A,949,Correct
2,relearn,9,607,B,37.57223693714752,62.261134299175765,1.878611846857376,0.9779956105922905,A,1694,Incorrect
2,relearn,9,608,C,89.52652437794944,67.10603601665731,4.476326218897472,1.0540991488073135,C,947,Correct
2,relearn,9,609,B,41.781332951402284,61.47439353104851,2.0890666475701143,0.9656375155051495,B,2032,Correct
2,relearn,9,610,D,45.044011770547904,31.476396250870657,2.2522005885273955,0.4944300761160828,A,1221,Incorrect
2,relearn,9,611,A,36.27824837795512,61.2531020057569,1.8139124188977562,0.9621614763543604,B,2966,Incorrect
2,relearn,9,612,D,66.19049324788794,37.22918965693586,3.3095246623943972,0.5847947436266541,C,2003,Incorrect
2,relearn,9,613,A,22.9057970951323,47.6231128895586,1.145289854756615,0.7480621079745733,A,655,Correct
2,relearn,9,614,C,82.54735870450843,52.82302214437718,4.127367935225421,0.8297420915459314,C,1015,Correct
2,relearn,9,615,B,55.364342587336026,53.47869441036654,2.768217129366801,0.8400413674159053,B,2438,Correct
2,relearn,9,616,C,51.47377901928851,42.00094714118066,2.5736889509644256,0.6597493349127319,B,2252,Incorrect
2,relearn,9,617,A,11.152847923324565,56.58876947527844,0.5576423961662282,0.8888943122961054,A,846,Correct
2,relearn,9,618,D,61.25237378765031,21.82022246516006,3.0626186893825156,0.34275125298120906,D,997,Correct
2,relearn,9,619,D,51.78549583286724,30.046714726911908,2.589274791643362,0.4719726912528735,D,1813,Correct
2,relearn,9,620,A,33.139392398841466,52.092123165262876,1.6569696199420734,0.8182611572294227,B,2079,Incorrect
2,relearn,9,621,D,26.34683325354647,31.395771950875265,1.3173416626773236,0.49316363257325113,A,862,Incorrect
2,relearn,9,622,B,40.124641237449794,73.55104765879909,2.0062320618724896,1.1553371549435798,B,1798,Correct
2,relearn,9,623,C,54.51906577280314,57.984338495797346,2.725953288640157,0.910815859208304,C,1198,Correct
2,relearn,9,624,A,6.928522153485087,46.569474566718114,0.34642610767425436,0.7315115959016917,A,974,Correct
2,relearn,9,625,D,68.98215588057795,10.324669336183318,3.449107794028897,0.1621795266864866,D,1493,Correct
2,relearn,9,626,A,17.165858754226328,74.14673967236848,0.8582929377113163,1.1646942632117383,B,1164,Incorrect
2,relearn,9,627,B,55.9749847672684,67.12487601690832,2.79874923836342,1.0543950868392242,B,1874,Correct
2,relearn,9,628,A,21.068536170885082,76.42963666233771,1.0534268085442542,1.2005539252746864,A,1011,Correct
2,relearn,9,629,C,91.63146212349689,41.11285760184378,4.581573106174845,0.6457992570501784,C,975,Correct
2,relearn,9,630,B,65.1169969956662,72.0493058547639,3.2558498497833104,1.1317478498478517,B,1269,Correct
2,relearn,9,631,A,23.78188710364961,73.01991672923933,1.1890943551824804,1.1469941698115835,A,1037,Correct
2,relearn,9,632,C,65.79735047750847,33.21999995426742,3.2898675238754236,0.521818539042899,C,1128,Correct
2,relearn,9,633,B,37.60886230025639,78.37937202508894,1.8804431150128196,1.2311802967350038,B,804,Correct
2,relearn,9,634,B,69.22843121128392,67.44672223866819,3.461421560564196,1.0594506354685564,C,1228,Incorrect
2,relearn,9,635,B,43.26605056470719,67.09819600070175,2.1633025282353597,1.0539759981246632,B,1478,Correct
2,relearn,9,636,A,42.299942490840444,44.16151404109243,2.1149971245420223,0.6936874404144924,B,4247,Incorrect
2,relearn,9,637,B,60.69134294823,51.46173658482653,3.0345671474115,0.8083590679793206,C,747,Incorrect
2,relearn,9,638,A,45.750159413993615,59.715268854125284,2.287507970699681,0.9380052496962968,C,2599,Incorrect
2,relearn,9,639,A,17.36919552925648,52.2608751787015,0.8684597764628239,0.8209119076579089,A,686,Correct
2,relearn,9,640,D,49.533862076192776,16.725354653092246,2.4766931038096387,0.2627212565341923,D,1620,Correct
2,relearn,9,641,B,59.535425342199325,73.57857182997039,2.976771267109966,1.1557695036133193,B,732,Correct
2,relearn,9,642,B,63.943075696701285,81.13282567200328,3.197153784835064,1.2744314454807342,B,1125,Correct
2,relearn,9,643,A,37.289752038095514,72.50580239596847,1.8644876019047758,1.138918480749039,A,1350,Correct
2,relearn,9,644,D,53.528281431826585,18.73528895790907,2.6764140715913296,0.2942932307652455,A,1614,Incorrect
2,relearn,9,645,C,49.88058955107572,42.26898766706411,2.494029477553786,0.6639597056476308,A,4052,Incorrect
2,relearn,9,646,C,74.82900604469239,74.37479102008997,3.7414503022346195,1.1682764854049539,C,1069,Correct
2,relearn,9,647,A,16.33107001096722,45.90618181284361,0.8165535005483611,0.7210926176879343,A,712,Correct
2,relearn,9,648,B,50.082352589921186,71.94555417992188,2.504117629496059,1.130118122350445,B,5029,Correct
2,relearn,9,649,D,57.63833893051777,-0.259314677120706,2.8819169465258887,-0.004073305423052096,D,955,Correct
2,relearn,9,650,D,31.661553472372248,32.88886197938942,1.5830776736186123,0.5166170358968922,D,900,Correct
2,relearn,9,651,B,56.60444498876838,66.02797964415,2.830222249438419,1.0371650789071902,C,1710,Incorrect
2,relearn,9,652,B,37.57189512083091,60.58665195242242,1.8785947560415455,0.9516929033966599,A,743,Incorrect
2,relearn,9,653,B,37.40360491761162,91.8935741275052,1.870180245880581,1.443460886955397,B,1324,Correct
2,relearn,9,654,D,46.62951117203258,6.277057262997051,2.331475558601629,0.09859978491796996,D,789,Correct
2,relearn,9,655,D,25.30125939823768,19.237433394705796,1.2650629699118838,0.3021808971336534,A,951,Incorrect
2,relearn,9,656,A,7.295612601309575,44.04890230458236,0.36478063006547873,0.6919185393938523,A,702,Correct
2,relearn,9,657,C,81.18030323782499,38.37871656957796,4.059015161891249,0.602851470145955,C,1150,Correct
2,relearn,9,658,B,62.537724918963804,74.1572735440948,3.1268862459481905,1.164859728881885,B,1501,Correct
2,relearn,9,659,D,34.06968883177146,33.81593729903736,1.7034844415885728,0.5311795009645441,A,1685,Incorrect
2,relearn,9,660,C,49.28310824922836,46.384737031356266,2.464155412461418,0.7286097454820164,C,3044,Correct
2,relearn,9,661,C,75.88352718147164,47.157660623417385,3.794176359073582,0.7407508008750437,C,639,Correct
2,relearn,9,662,B,50.84592197263581,68.93254282094694,2.54229609863179,1.0827898505977536,B,2573,Correct
2,relearn,9,663,B,65.87918151208362,63.88546065004799,3.2939590756041808,1.0035104692469528,C,1269,Incorrect
2,relearn,9,664,C,80.95131631456782,31.59867719393095,4.047565815728391,0.49635086067804407,C,1143,Correct
2,relearn,9,665,C,101.69979549591285,48.654990854963906,5.084989774795642,0.7642708091521658,C,836,Correct
2,relearn,9,666,D,47.76983400645595,34.53995190689665,2.3884917003227972,0.5425522958302563,A,1495,Incorrect
2,relearn,9,667,C,90.60204893930484,40.33241161819048,4.530102446965242,0.6335400402063341,C,788,Correct
2,relearn,9,668,B,55.00582242944639,53.57975581812764,2.7502911214723196,0.8416288362968237,C,1285,Incorrect
2,relearn,9,669,D,50.84529955792859,5.114862355919783,2.5422649778964295,0.08034407000740287,D,677,Correct
2,relearn,9,670,B,57.62865753020473,94.70176573783976,2.881432876510236,1.4875718576198949,B,1320,Correct
2,relearn,9,671,C,75.2628461089873,40.91358697605229,3.7631423054493656,0.6426691213798645,C,820,Correct
2,relearn,9,672,B,62.80204549237434,74.04075129735328,3.140102274618717,1.1630294017101699,C,1201,Incorrect
2,relearn,9,673,C,87.19011193385867,62.86695860646073,4.359505596692934,0.987511876557953,C,773,Correct
2,relearn,9,674,A,35.99537756726621,57.79880408106474,1.7997688783633106,0.9079014914367437,A,2107,Correct
2,relearn,9,675,C,69.02362344628405,41.14855776795679,3.451181172314202,0.6463600339481412,C,966,Correct
2,relearn,9,676,C,84.70901707988207,31.59364931474877,4.235450853994104,0.49627188293653474,C,860,Correct
2,relearn,9,677,C,71.88186279071846,52.24520756282484,3.594093139535923,0.8206658013232219,B,1575,Incorrect
2,relearn,9,678,C,77.84125801564811,44.722331252084764,3.8920629007824057,0.7024967365647936,C,797,Correct
2,relearn,9,679,C,65.08371665811102,44.70104810173873,3.254185832905551,0.7021624216209318,C,742,Correct
2,relearn,9,680,A,29.39510272010165,60.10381282914361,1.4697551360050827,0.9441084841838676,C,1957,Incorrect
2,relearn,9,681,D,41.27351766979575,32.1660479587608,2.0636758834897875,0.5052630998112995,A,1333,Incorrect
2,relearn,9,682,B,39.16271810443664,67.60959458840215,1.9581359052218321,1.0620090283555421,C,4797,Incorrect
2,relearn,9,683,A,32.112781288785364,50.97006387733328,1.6056390644392682,0.8006358911501635,B,655,Incorrect
2,relearn,9,684,A,32.37367875258458,70.07575268688436,1.618683937629229,1.1007473491794555,A,811,Correct
2,relearn,9,685,A,43.77031812718815,57.919624324907105,2.1885159063594073,0.9097993313890441,C,1792,Incorrect
2,relearn,9,686,C,70.11128382390123,53.433051883441244,3.5055641911950612,0.8393244162795063,C,773,Correct
2,relearn,9,687,B,69.89937952927312,57.19590401384774,3.494968976463656,0.8984311593266551,C,976,Incorrect
2,relearn,9,688,C,81.76181649431463,34.631441561828765,4.0880908247157315,0.5439894119693274,C,956,Correct
2,relearn,9,689,B,48.92932646520141,76.81762885169474,2.4464663232600707,1.2066484923333576,B,972,Correct
2,relearn,9,690,C,65.88971714889212,46.550329744246014,3.2944858574446063,0.7312108697335286,B,2494,Incorrect
2,relearn,9,691,C,60.27109997103491,35.29372079885661,3.0135549985517454,0.5543924698976861,A,2214,Incorrect
2,relearn,9,692,A,10.596741863856073,30.17884889963842,0.5298370931928037,0.4740482499845024,A,727,Correct
2,relearn,9,693,A,6.324097178933947,58.90669275678606,0.31620485894669736,0.9253041660599509,A,437,Correct
2,relearn,9,694,C,76.96397588870956,45.92285446389797,3.848198794435478,0.7213545110782754,C,766,Correct
2,relearn,9,695,C,100.66122324240206,53.089864876921936,5.033061162120103,0.8339336473870638,C,685,Correct
2,relearn,9,696,B,24.506324258379315,81.61291419152616,1.2253162129189659,1.2819726583107636,B,1181,Correct
2,relearn,9,697,B,48.642585318946104,53.63369500336587,2.432129265947305,0.8424761110372491,B,1751,Correct
2,relearn,9,698,B,31.099462057976005,92.74547100139714,1.5549731028988003,1.4568424517585725,B,1187,Correct
2,relearn,9,699,A,30.9874304810657,51.97171952656135,1.549371524053285,0.8163698612953717,A,2688,Correct
2,relearn,9,700,C,67.76199626466044,58.34217242415831,3.388099813233022,0.9164367014110238,C,773,Correct
2,relearn,9,701,B,33.70581249633977,70.77428487817842,1.6852906248169885,1.1117198671817825,A,1460,Incorrect
2,relearn,9,702,B,47.63919463730028,96.34445109201008,2.381959731865014,1.5133750988239998,B,1182,Correct
2,relearn,9,703,B,27.083576618763768,79.55161498153387,1.3541788309381884,1.2495938460359528,B,1055,Correct
2,relearn,9,704,A,48.16402261965109,50.038529791036986,2.4082011309825546,0.786003387939779,C,2620,Incorrect
2,relearn,9,705,D,26.878405712552727,36.31124679439459,1.3439202856276364,0.5703757308597799,A,1214,Incorrect
2,relearn,9,706,B,27.515013248150836,87.12544403397905,1.3757506624075417,1.368563274589486,B,1166,Correct
2,relearn,9,707,A,27.335944645813544,66.49784174793008,1.3667972322906772,1.0445456555743688,B,958,Incorrect
2,relearn,9,708,C,67.70689237134542,29.36460106953604,3.385344618567271,0.461258074978247,C,1118,Correct
2,relearn,9,709,C,74.47705208951257,76.7579057248484,3.723852604475628,1.2057103636506081,C,1094,Correct
2,relearn,9,710,B,71.82505082551066,79.48204796340548,3.5912525412755327,1.248501089870531,C,686,Incorrect
2,relearn,9,711,B,68.00337802054052,79.91765463254048,3.400168901027026,1.2553435834285773,C,739,Incorrect
2,relearn,9,712,A,13.99248321873841,43.08801658785667,0.6996241609369206,0.6768249818508283,A,1447,Correct
2,relearn,9,713,A,-0.17293984634978798,42.09545445887819,-0.008646992317489399,0.6612338523876771,A,820,Correct
2,relearn,9,714,A,12.625631228374042,50.81057840963484,0.6312815614187021,0.7981306992817849,A,560,Correct
2,relearn,9,715,C,84.17115066158001,58.506202205353,4.208557533079,0.9190132751888797,C,811,Correct
2,relearn,9,716,A,43.922050712607,62.05976938508261,2.1961025356303505,0.9748325779182614,A,1501,Correct
2,relearn,9,717,A,26.65557618001851,60.06187168419383,1.3327788090009256,0.9434496742195808,A,1365,Correct
2,relearn,9,718,A,29.690724068649843,39.22382985408098,1.484536203432492,0.6161264785761841,A,2054,Correct
2,relearn,9,719,B,51.79767327083658,92.21286586298105,2.589883663541829,1.4484763098080116,B,1071,Correct
2,relearn,9,720,D,65.52311140421236,19.02227227255827,3.276155570210618,0.29880115413026936,C,685,Incorrect
2,relearn,9,721,D,58.78263378805549,31.736734268024648,2.9391316894027746,0.49851945612678833,C,1628,Incorrect
2,relearn,9,722,B,64.43475820898048,82.93615668510421,3.2217379104490242,1.3027581027944768,B,1094,Correct
2,relearn,9,723,A,3.4251680071108055,41.77834049791569,0.17125840035554027,0.6562526379371244,A,959,Correct
2,relearn,9,724,C,62.255982077230726,39.981039410759614,3.112799103861536,0.628020698478632,C,1134,Correct
2,relearn,9,725,D,64.92942437949972,11.404044423579661,3.2464712189749863,0.17913431091164758,D,540,Correct
2,relearn,9,726,C,78.67417164954445,37.19583327824402,3.9337085824772227,0.5842707828554108,C,1168,Correct
2,relearn,9,727,C,93.0355345704485,50.83575138651344,4.6517767285224245,0.7985261154779386,C,995,Correct
2,relearn,9,728,B,32.067697148797414,88.86801510036072,1.6033848574398706,1.3959355168920002,B,773,Correct
2,relearn,9,729,A,14.096520933488975,72.11052329463331,0.7048260466744487,1.1327094511446782,A,1326,Correct
2,relearn,9,730,B,24.89678316652576,70.4261595485909,1.244839158326288,1.106251527291979,A,1224,Incorrect
2,relearn,9,731,D,58.95129158572084,46.35584645426685,2.9475645792860417,0.7281559333583061,C,757,Incorrect
2,relearn,9,732,B,63.153074771419,69.77551914082986,3.1576537385709504,1.0960312916662254,C,1068,Incorrect
2,relearn,9,733,C,72.70714055740311,73.07837919760503,3.6353570278701555,1.1479124961172256,C,566,Correct
2,relearn,9,734,D,75.95994330844506,25.93762628165522,3.7979971654222533,0.40742728089002794,D,1100,Correct
2,relearn,9,735,D,53.88186225849086,18.57178141646107,2.694093112924543,0.29172486031014777,D,702,Correct
2,relearn,9,736,A,26.5630574132936,51.62543279479493,1.32815287066468,0.8109304020326067,D,1053,Incorrect
2,relearn,9,737,A,19.03908071372775,51.237568227216116,0.9519540356863874,0.8048378396521397,A,773,Correct
2,relearn,9,738,C,69.48830069055116,59.66560032813145,3.474415034527558,0.9372250583144124,C,903,Correct
2,relearn,9,739,D,31.394780991451253,6.163124542361427,1.5697390495725625,0.09681013392720807,D,1213,Correct
2,relearn,9,740,B,62.126819230182264,91.03674422990011,3.106340961509113,1.4300018343969358,B,885,Correct
2,relearn,9,741,B,53.82610684383657,76.32376978903154,2.6913053421918285,1.1988909723175005,B,1213,Correct
2,relearn,9,742,B,55.19410908612024,100.48952123277284,2.7597054543060118,1.5784857083381734,B,1366,Correct
2,relearn,9,743,C,61.59391653865768,43.01279204143661,3.0796958269328845,0.6756433574388139,C,1141,Correct
2,relearn,9,744,A,25.662864436629278,60.55589856725541,1.2831432218314638,0.9512098303520914,A,903,Correct
2,relearn,9,745,D,44.70066174347849,51.12802766315188,2.2350330871739246,0.8031171804954684,A,2356,Incorrect
2,relearn,9,746,D,54.03961506620014,5.05933550112778,2.701980753310007,0.07947185621194534,D,727,Correct
2,relearn,9,747,A,28.011832377387496,42.94016545912615,1.4005916188693748,0.6745025417516044,A,2703,Correct
2,relearn,9,748,D,47.763531056769324,-1.6239601336200664,2.388176552838466,-0.0255091061275175,D,962,Correct
2,relearn,9,749,B,31.107881413479973,85.09301122624844,1.5553940706739986,1.3366378947010793,B,839,Correct
2,relearn,9,750,D,56.80175195772508,31.2257246708962,2.8400875978862543,0.4904925361455253,A,3206,Incorrect
2,relearn,9,751,B,34.612373610813705,90.4567894692312,1.7306186805406854,1.4208919263192763,B,910,Correct
2,relearn,9,752,D,45.05458087408974,29.683874111189127,2.2527290437044867,0.46627320418898005,A,1494,Incorrect
2,relearn,9,753,C,95.21353695021945,59.07434527127531,4.760676847510973,0.9279376455993272,C,671,Correct
2,relearn,9,754,A,16.763746022169077,60.632423355880896,0.8381873011084537,0.9524118789209082,A,669,Correct
2,relearn,9,755,B,54.43843617407393,62.27286577683144,2.721921808703696,0.9781798882123846,A,1887,Incorrect
2,relearn,9,756,B,56.22053413360109,74.31730806256293,2.8110267066800545,1.167373545219586,C,708,Incorrect
2,relearn,9,757,B,44.879943840974384,85.5893721872479,2.2439971920487194,1.344434714444103,B,997,Correct
2,relearn,9,758,D,32.290377159166766,38.377453923131824,1.6145188579583385,0.6028316365419586,A,1815,Incorrect
2,relearn,9,759,B,40.10093645786045,87.74329912464235,2.0050468228930227,1.3782685196585407,B,900,Correct
2,relearn,9,760,D,35.547765968438384,16.68873400282708,1.7773882984219194,0.26214602070497867,D,892,Correct
2,relearn,9,761,A,26.93133764097544,67.1404276835457,1.346566882048772,1.0546393718475195,B,1560,Incorrect
2,relearn,9,762,D,62.332503901921086,9.413258498702005,3.1166251950960544,0.14786311872931948,D,948,Correct
2,relearn,9,763,D,39.39504660165026,45.44007106198487,1.9697523300825128,0.7137709671346489,C,2968,Incorrect
2,relearn,9,764,D,30.623292472341593,11.795864090485114,1.5311646236170795,0.18528899984705838,D,1811,Correct
2,relearn,9,765,B,40.964559249595254,80.46788833945794,2.048227962479763,1.2639866342856243,B,733,Correct
2,relearn,9,766,A,45.10432348198256,58.043720118850075,2.255216174099128,0.9117486235620075,A,1369,Correct
2,relearn,9,767,A,42.957528217047425,35.05221413811723,2.147876410852371,0.5505988921418268,A,998,Correct
2,relearn,9,768,A,21.56186363002569,73.28556592628613,1.0780931815012846,1.1511669776409548,A,684,Correct
2,relearn,9,769,D,39.508558476489384,31.323031961401977,1.9754279238244692,0.4920210354904937,A,4055,Incorrect
2,relearn,9,770,B,76.08693192782364,77.27000254209364,3.804346596391182,1.21375436164553,C,877,Incorrect
2,relearn,9,771,A,10.206859092430923,65.54974006484723,0.5103429546215462,1.0296529091622229,A,827,Correct
2,relearn,9,772,D,28.608976946674378,19.98641238792775,1.430448847333719,0.3139458316476493,D,2878,Correct
2,relearn,9,773,D,62.081893042485895,28.93996202495603,3.104094652124295,0.45458786046384736,C,785,Incorrect
2,relearn,9,774,C,80.20131686591516,53.9420485775429,4.010065843295758,0.8473197176539626,C,707,Correct
2,relearn,9,775,D,41.59624847989282,5.032856838766033,2.079812423994641,0.0790559303561826,D,957,Correct
2,relearn,9,776,A,21.393053226172444,26.08349507692009,1.0696526613086221,0.40971858256798843,A,1358,Correct
2,relearn,9,777,B,29.834798348826904,80.95422855234659,1.4917399174413453,1.2716260484854056,B,1094,Correct
2,relearn,9,778,D,43.41148220267414,34.35264028154103,2.170574110133707,0.5396100116995104,C,1741,Incorrect
2,relearn,9,779,C,59.71408631410554,60.6444415461163,2.985704315705277,0.952600660211673,C,837,Correct
2,relearn,9,780,D,32.486490242369285,32.573410700130204,1.6243245121184642,0.511661938789461,A,878,Incorrect
2,relearn,9,781,D,41.23904424111427,36.56233392147968,2.0619522120557137,0.5743197982290872,A,2069,Incorrect
2,relearn,9,782,D,48.62579793565735,51.142685864082466,2.4312898967828676,0.80334743097726,C,3287,Incorrect
2,relearn,9,783,D,63.82363178554636,39.42876869370954,3.1911815892773183,0.6193456503412456,A,2246,Incorrect
2,relearn,9,784,B,62.53407994203723,52.19495744788,3.1267039971018615,0.8198764743634582,C,1070,Incorrect
2,relearn,9,785,D,45.902712018993356,12.280960315821028,2.295135600949668,0.19290887353605568,D,838,Correct
2,relearn,9,786,D,52.21951170856134,50.7223706338542,2.610975585428067,0.7967451347798751,B,532,Incorrect
2,relearn,9,787,D,66.67387383330386,15.502781674404469,3.333693691665193,0.24351712509257772,D,733,Correct
2,relearn,9,788,A,12.81164930888432,48.12739707418794,0.6405824654442159,0.7559833854233386,A,646,Correct
2,relearn,9,789,D,34.03410007956224,40.3756359929142,1.7017050039781123,0.6342190070967745,A,741,Incorrect
2,relearn,9,790,D,67.64139583786732,19.175689229107267,3.382069791893366,0.3012110220484216,C,944,Incorrect
2,relearn,9,791,B,71.32234905921845,59.25340366286466,3.5661174529609228,0.9307502882372307,C,661,Incorrect
2,relearn,9,792,C,60.94266819851151,35.47350261661293,3.047133409925576,0.5572164760872474,D,694,Incorrect
2,relearn,9,793,D,31.063343681996347,35.94103343968492,1.5531671840998174,0.5645604330826962,B,901,Incorrect
2,relearn,9,794,B,59.566417885550756,73.11598477842227,2.978320894277538,1.148503203199373,B,1381,Correct
2,relearn,9,795,D,68.2281113874335,19.221418195943006,3.411405569371675,0.3019293309797586,D,1744,Correct
2,relearn,9,796,B,43.53815773598695,90.2817556907287,2.176907886799347,1.4181425021559089,B,786,Correct
2,relearn,9,797,B,34.8863256730909,56.40764943163826,1.7443162836545452,0.886049285303516,A,1671,Incorrect
2,relearn,9,798,A,11.618271251008565,66.10918820471738,0.5809135625504283,1.0384406999936258,A,655,Correct
2,relearn,9,799,D,63.95937669204521,32.76988609731936,3.1979688346022606,0.5147481671115639,A,1223,Incorrect
2,relearn,9,800,D,40.559452990855405,20.747022316506126,2.02797264954277,0.3258934644669957,D,1819,Correct
2,relearn,9,801,B,44.497480234322026,100.23389308769578,2.2248740117161017,1.574470310825049,B,854,Correct
2,relearn,9,802,B,28.245126694227995,77.22977730310531,1.4122563347113999,1.2131225050690568,B,1350,Correct
2,relearn,9,803,A,42.85365032695859,59.10255324255409,2.1426825163479295,0.9283807353760377,D,2541,Incorrect
2,relearn,9,804,A,42.33079113722624,64.91993110798347,2.116539556861312,1.0197598932019818,B,526,Incorrect
2,relearn,9,805,B,64.76753522622275,77.88385539621166,3.238376761311138,1.2233967397299415,C,725,Incorrect
2,relearn,9,806,D,39.8255874010658,36.07735988589042,1.9912793700532903,0.5667018438921422,C,620,Incorrect
2,relearn,9,807,C,84.68074358590327,25.38755587409888,4.234037179295163,0.3987867951333472,C,543,Correct
2,relearn,9,808,A,46.133918899794836,41.45416205897378,2.3066959449897415,0.6511604549259637,A,758,Correct
2,relearn,9,809,D,36.12784309222387,15.606421873054078,1.8063921546111936,0.24514510152604876,A,709,Incorrect
2,relearn,9,810,A,35.10786346736471,35.5776952929904,1.7553931733682355,0.5588531308205741,A,926,Correct
2,relearn,9,811,D,34.422170224092575,27.56371112064644,1.721108511204629,0.43296976181147073,D,2039,Correct
2,relearn,9,812,A,26.591532627002607,69.73912162152519,1.3295766313501303,1.0954595607699429,B,910,Incorrect
2,relearn,9,813,D,45.882531792106384,24.80872655075837,2.294126589605319,0.3896945653839027,D,3412,Correct
2,relearn,9,814,C,62.88220743272963,59.78575719765493,3.144110371636481,0.9391124780072792,A,3870,Incorrect
2,relearn,9,815,B,70.72024791682989,91.01724605886459,3.536012395841494,1.4296955578425177,B,877,Correct
2,relearn,9,816,C,80.67736540940258,38.22400657287046,4.033868270470129,0.600421291200489,C,1479,Correct
2,relearn,9,817,A,10.935322565348647,62.69849478227231,0.5467661282674324,0.9848656529956235,A,843,Correct
2,relearn,9,818,D,32.42035461200939,7.093393065000146,1.6210177306004696,0.11142275771014623,D,1374,Correct
2,relearn,9,819,D,46.10142891049855,29.01649309479532,2.3050714455249275,0.4557900076977397,D,1352,Correct
2,relearn,9,820,C,97.25603379283416,55.24741243379113,4.862801689641708,0.8678243251592181,C,788,Correct
2,relearn,9,821,D,52.01057354944125,9.841894045154817,2.600528677472062,0.15459611014833755,D,1790,Correct
2,relearn,9,822,B,28.070618932105816,61.982443028732796,1.4035309466052908,0.9736179383530741,A,1381,Incorrect
2,relearn,9,823,A,1.8625184855186525,55.61148769012276,0.09312592427593262,0.8735432059124443,A,686,Correct
2,relearn,9,824,B,27.04982183534652,85.91993317237493,1.3524910917673258,1.3496271542562952,B,1312,Correct
2,relearn,9,825,B,50.98502492832771,92.05844751896205,2.5492512464163855,1.4460507121322637,B,948,Correct
2,relearn,9,826,D,39.29762456013073,35.78727422762085,1.9648812280065362,0.562145189027485,A,2932,Incorrect
2,relearn,9,827,A,16.062338095437497,55.43944141980521,0.8031169047718748,0.8708407094179086,A,662,Correct
2,relearn,9,828,A,27.56854453539088,54.97953974003478,1.3784272267695439,0.8636165907252067,A,568,Correct
2,relearn,9,829,C,57.24138488279968,52.96605600923196,2.862069244139984,0.8319888622411432,A,1778,Incorrect
2,relearn,9,830,C,58.15211877715768,65.66313336566276,2.907605938857884,1.0314340869662646,C,1086,Correct
2,relearn,9,831,D,45.86355840562075,45.43771693111685,2.2931779202810376,0.7137339885334464,C,607,Incorrect
2,relearn,9,832,C,69.71461390921908,69.61396465989856,3.4857306954609544,1.093493599813984,C,623,Correct
2,relearn,9,833,D,69.81009754436398,42.35255882961242,3.4905048772181995,0.6652724383991996,C,749,Incorrect
2,relearn,9,834,A,12.323549724012986,32.209981558058715,0.6161774862006493,0.5059532071752999,A,652,Correct
2,relearn,9,835,A,8.869619059791425,31.346647791586754,0.44348095298957124,0.4923919920835783,A,880,Correct
2,relearn,9,836,D,66.48715191480062,43.98642268812148,3.324357595740031,0.6909371118734892,D,5075,Correct
2,relearn,9,837,A,32.9790859207646,34.46108539896453,1.6489542960382297,0.5413134636205872,A,2102,Correct
2,relearn,9,838,B,40.19209806024319,89.40478381530447,2.009604903012159,1.404367060149721,B,909,Correct
2,relearn,9,839,B,49.030976383501525,77.05760488641725,2.451548819175076,1.210418027071967,B,1837,Correct
2,relearn,9,840,A,15.961136775801089,52.64075274897232,0.7980568387900544,0.8268790105780408,A,1165,Correct
2,relearn,9,841,B,51.09200739014662,70.06377158747631,2.554600369507331,1.1005591505100443,B,1376,Correct
2,relearn,9,842,B,46.22243545553632,74.41037796143814,2.3111217727768163,1.1688354837724697,B,2163,Correct
2,relearn,9,843,D,73.15608162638493,15.946989147867825,3.657804081319247,0.2504947197690886,C,929,Incorrect
2,relearn,9,844,C,85.39160810165427,66.72829408308334,4.2695804050827135,1.0481655923899693,C,996,Correct
2,relearn,9,845,A,32.929303146503635,35.98210886001749,1.6464651573251816,0.5652056442764958,A,2742,Correct
2,relearn,9,846,C,92.06166422894493,40.49659581495103,4.603083211447247,0.6361190395382266,C,726,Correct
2,relearn,9,847,C,68.20008691460288,42.336357099171586,3.410004345730144,0.6650179422125576,C,1268,Correct
2,relearn,9,848,D,67.97155755767824,32.31759088257978,3.3985778778839117,0.5076435304921656,C,1520,Incorrect
2,relearn,9,849,B,29.20807673121445,79.28999517346229,1.4604038365607226,1.2454843317005964,B,965,Correct
2,relearn,9,850,A,22.538143567441924,62.16050293926937,1.126907178372096,0.976414896887277,A,2076,Correct
2,relearn,9,851,D,52.327630538781705,21.19133930283167,2.6163815269390853,0.33287277936752313,D,1238,Correct
2,relearn,9,852,D,45.44613680747955,35.39150319253662,2.2723068403739775,0.5559284321458637,A,2878,Incorrect
2,relearn,9,853,D,71.16651458546195,38.902362271618486,3.558325729273098,0.6110768775990268,C,823,Incorrect
2,relearn,9,854,D,37.29892207731493,45.09679250160673,1.8649461038657464,0.7083787601175549,B,2675,Incorrect
2,relearn,9,855,B,63.49973886241641,80.53477684748789,3.17498694312082,1.2650373165128066,B,1176,Correct
2,relearn,9,856,D,47.17123300984374,19.983316961593804,2.358561650492187,0.31389720880449695,D,1151,Correct
2,relearn,9,857,A,38.016154489812926,38.57177008544893,1.9008077244906463,0.6058839476820046,A,878,Correct
2,relearn,9,858,B,29.011380171668176,74.95521546960609,1.4505690085834086,1.1773937713377727,A,603,Incorrect
2,relearn,9,859,B,40.56993183591467,86.29777887019094,2.028496591795734,1.3555623405985415,B,718,Correct
2,relearn,9,860,C,54.31053480616528,53.808590119205256,2.7155267403082637,0.8452233570925978,A,2269,Incorrect
2,relearn,9,861,C,61.319107922715276,32.811448661248264,3.0659553961357635,0.515401030339081,D,2158,Incorrect
2,relearn,9,862,C,54.53765352508768,63.571196804618914,2.7268826762543834,0.9985740243065085,C,878,Correct
2,relearn,9,863,D,36.07730132349431,13.761444197138555,1.8038650661747155,0.21616425996258187,D,1638,Correct
2,relearn,9,864,B,35.00905717502421,94.19175038689792,1.7504528587512107,1.4795605552212103,B,756,Correct
2,relearn,9,865,D,45.47356886040286,45.52163342185328,2.2736784430201427,0.7150521456875094,A,2070,Incorrect
2,relearn,9,866,D,29.299474791232836,34.31572424544426,1.4649737395616418,0.5390301359605042,D,1741,Correct
2,relearn,9,867,D,48.81554959037869,1.765118668425469,2.440777479518934,0.02772641920719826,D,1023,Correct
2,relearn,9,868,B,61.03492404278613,63.58976101299295,3.0517462021393067,0.9988656302097465,C,1356,Incorrect
2,relearn,9,869,B,35.49341978144106,59.0312363070028,1.774670989072053,0.9272604915720152,A,875,Incorrect
2,relearn,9,870,B,26.571137902886246,82.54150225688024,1.3285568951443123,1.2965588855324015,B,951,Correct
2,relearn,9,871,B,43.89900410161878,74.6155566337242,2.194950205080939,1.1720584228201054,B,1363,Correct
2,relearn,9,872,A,40.45329223343614,29.690860225085476,2.022664611671807,0.4663829418094496,D,1031,Incorrect
2,relearn,9,873,B,71.05739466848158,65.57766543009322,3.552869733424079,1.030091559773751,C,756,Incorrect
2,relearn,9,874,C,93.25511129764146,67.41117732941628,4.662755564882073,1.058892297339665,C,614,Correct
2,relearn,9,875,A,29.8664949220445,39.69947604405255,1.493324746102225,0.6235979114567974,A,509,Correct
2,relearn,9,876,C,53.429807579013215,38.484273061228016,2.6714903789506605,0.6045095476394876,A,1390,Incorrect
2,relearn,9,877,D,71.93439616529658,14.58432729593301,3.5967198082648286,0.2290900774522612,D,758,Correct
2,relearn,9,878,A,20.85714311610841,63.89500945270793,1.0428571558054205,1.003660461488388,B,1341,Incorrect
2,relearn,9,879,A,10.101166651590939,55.84686456279893,0.5050583325795469,0.8772404971825662,A,541,Correct
2,relearn,9,880,C,63.065344358090016,50.86394287178519,3.1532672179045007,0.7989689462930565,C,1396,Correct
2,relearn,9,881,A,24.839404805853178,30.051990391293273,1.241970240292659,0.47205556119519,A,520,Correct
2,relearn,9,882,C,59.51571323556691,56.96264039516033,2.9757856617783456,0.8947670629725644,C,1149,Correct
2,relearn,9,883,D,62.78674137548273,4.537287357759027,3.139337068774136,0.07127154315180802,D,996,Correct
2,relearn,9,884,A,5.510237188000662,53.13194871416829,0.2755118594000331,0.8345946987567037,A,575,Correct
2,relearn,9,885,C,91.97544682615398,55.818639824043025,4.598772341307699,0.8767971440229411,C,869,Correct
2,relearn,9,886,B,33.92041668873533,56.24624429902005,1.6960208344367664,0.8835139394090908,A,2814,Incorrect
2,relearn,9,887,B,43.99386987428142,80.60482237581768,2.199693493714071,1.266137589098895,B,1036,Correct
2,relearn,9,888,C,73.12589927770716,24.25603761790391,3.656294963885358,0.3810129479280229,D,1166,Incorrect
2,relearn,9,889,A,22.25384749050351,48.875998215650554,1.1126923745251756,0.7677423846557782,A,639,Correct
2,relearn,9,890,A,40.526834500751576,54.037943426723785,2.026341725037579,0.8488260304224815,B,2638,Incorrect
2,relearn,9,891,B,49.7092763113916,53.64824248614853,2.4854638155695796,0.8427046223624403,A,2390,Incorrect
2,relearn,9,892,A,12.986222732879009,61.76349743817749,0.6493111366439505,0.970178749058952,A,547,Correct
2,relearn,9,893,C,100.71185107186248,46.742527777330686,5.0355925535931245,0.7342299093773945,C,829,Correct
2,relearn,9,894,D,65.71593280819663,25.7241599417887,3.2857966404098313,0.4040741594644611,C,936,Incorrect
2,relearn,9,895,A,44.63740585951748,34.28887970850895,2.231870292975874,0.5386084629603792,B,3869,Incorrect
2,relearn,9,896,C,94.5728151504835,44.15695519904148,4.728640757524175,0.6936158302910116,C,767,Correct
2,relearn,9,897,D,50.272928123010594,7.804969188528911,2.5136464061505297,0.12260016932088558,D,940,Correct
2,relearn,9,898,D,64.65894552143976,3.875060495122227,3.232947276071988,0.06086930791846007,D,718,Correct
