experiment,condition,subject,trial,cat,x,y,xt,yt,resp,rt,fb
2,new_learn,4,0,B,54.87836577894125,73.46311980952856,2.7439182889470626,1.1539559875170087,A,2600,Incorrect
2,new_learn,4,1,D,61.84547217661799,17.48579261609294,3.0922736088308995,0.2746661881245612,B,1095,Incorrect
2,new_learn,4,2,A,28.41086121120541,50.39248445994341,1.4205430605602707,0.7915632948774802,C,1234,Incorrect
2,new_learn,4,3,A,31.16572695123013,29.769369462533376,1.5582863475615065,0.46761616202747586,A,542,Correct
2,new_learn,4,4,B,62.23715633023812,60.71410288861428,3.111857816511906,0.9536948980208273,D,1152,Incorrect
2,new_learn,4,5,C,71.87932826772266,59.1079100566761,3.593966413386133,0.9284648800154994,C,2070,Correct
2,new_learn,4,6,C,86.33168540765823,46.13406542964493,4.316584270382911,0.7246722051700167,A,1674,Incorrect
2,new_learn,4,7,D,25.59852269524183,18.391002319114794,1.2799261347620914,0.2888851888894194,D,935,Correct
2,new_learn,4,8,A,12.730600013022421,54.088701047238814,0.6365300006511211,0.8496233292611002,B,998,Incorrect
2,new_learn,4,9,D,44.797442836126535,12.939589937555365,2.2398721418063268,0.20325460344144172,A,948,Incorrect
2,new_learn,4,10,C,71.15670692359608,66.31383220537741,3.557835346179804,1.0416552404389994,D,1360,Incorrect
2,new_learn,4,11,C,79.97642741578804,52.124057084370804,3.9988213707894023,0.8187627740577716,B,1413,Incorrect
2,new_learn,4,12,B,64.81067986395482,70.11575986405084,3.240533993197741,1.1013757804488409,A,1226,Incorrect
2,new_learn,4,13,D,48.39631876606208,33.41136011993928,2.419815938303104,0.5248244174962212,C,3150,Incorrect
2,new_learn,4,14,B,51.341278332775154,79.73637510503094,2.5670639166387574,1.2524960512692263,A,1000,Incorrect
2,new_learn,4,15,C,69.0082997250021,67.4308190511824,3.450414986250105,1.0592008287836865,A,2444,Incorrect
2,new_learn,4,16,C,72.86148075708678,38.79257776499516,3.643074037854339,0.6093523866015977,A,1092,Incorrect
2,new_learn,4,17,B,38.07645675045384,60.07061927877443,1.9038228375226922,0.9435870811139359,B,1238,Correct
2,new_learn,4,18,A,41.7006930201427,52.96372002698453,2.085034651007135,0.831952168717806,C,1021,Incorrect
2,new_learn,4,19,D,73.35459435798803,17.194911612338885,3.6677297178994017,0.2700970400022483,C,2021,Incorrect
2,new_learn,4,20,A,13.693922011046578,71.2935410070637,0.6846961005523289,1.1198763233809699,D,872,Incorrect
2,new_learn,4,21,D,59.03373157120238,15.251055564394582,2.9516865785601194,0.23956302060295875,A,804,Incorrect
2,new_learn,4,22,C,61.68228081899946,73.13522900557166,3.0841140409499728,1.1488054908125553,B,620,Incorrect
2,new_learn,4,23,C,58.094443073712384,65.04911549166671,2.9047221536856194,1.021789116755671,C,446,Correct
2,new_learn,4,24,D,56.95128874721924,32.484207836507565,2.847564437360962,0.5102607434842807,C,1781,Incorrect
2,new_learn,4,25,D,35.16950761608422,35.81504795751171,1.7584753808042108,0.5625814577564245,A,2288,Incorrect
2,new_learn,4,26,A,40.45320779773477,44.363483450461274,2.0226603898867386,0.6968599684781076,B,611,Incorrect
2,new_learn,4,27,A,44.861270631332545,56.489926011304675,2.2430635315666274,0.8873416827947287,A,1103,Correct
2,new_learn,4,28,A,19.04743286483793,42.48772322597031,0.9523716432418965,0.6673955957723239,D,996,Incorrect
2,new_learn,4,29,D,33.13652454451059,31.652391946074168,1.6568262272255296,0.4971946100316567,D,1711,Correct
2,new_learn,4,30,A,41.01239365083123,52.20229370501415,2.0506196825415612,0.8199917120210458,B,1325,Incorrect
2,new_learn,4,31,A,14.454448600886968,72.54836196554608,0.7227224300443484,1.1395870049046637,C,621,Incorrect
2,new_learn,4,32,D,62.677687218551256,34.221997540590436,3.1338843609275626,0.5375578803234344,B,646,Incorrect
2,new_learn,4,33,C,90.72020619696136,66.7241322334526,4.536010309848068,1.0481002182088428,B,2440,Incorrect
2,new_learn,4,34,D,45.5890682162512,25.614537154897647,2.27945341081256,0.4023522087546462,C,1195,Incorrect
2,new_learn,4,35,C,101.204697486579,46.138630020577324,5.06023487432895,0.724743905596716,A,1695,Incorrect
2,new_learn,4,36,B,56.38005573874761,76.96678699455751,2.8190027869373804,1.2089914629625613,B,1333,Correct
2,new_learn,4,37,A,23.60692821093965,36.20748492359051,1.1803464105469825,0.5687458432045757,C,2405,Incorrect
2,new_learn,4,38,A,-1.2719635338443993,53.26058399756426,-0.06359817669221997,0.8366152970632499,A,1421,Correct
2,new_learn,4,39,A,23.795911157489094,46.79046136939954,1.1897955578744546,0.7349828484809129,B,1023,Incorrect
2,new_learn,4,40,C,62.08208265583495,71.04846636778599,3.1041041327917474,1.1160266999492898,D,629,Incorrect
2,new_learn,4,41,B,34.997545604065635,57.49850926913939,1.7498772802032818,0.9031844715614648,C,533,Incorrect
2,new_learn,4,42,A,4.1359097833385015,39.270658830986505,0.20679548916692508,0.6168620664252917,A,1032,Correct
2,new_learn,4,43,C,59.226993644470646,70.54828055031615,2.961349682223532,1.1081697995013244,B,2052,Incorrect
2,new_learn,4,44,D,67.20255143418296,43.0375365712607,3.3601275717091483,0.6760320436043733,C,326,Incorrect
2,new_learn,4,45,A,8.891313359673813,31.7401768930153,0.4445656679836907,0.4985735327536868,A,860,Correct
2,new_learn,4,46,B,48.3978033812965,58.251470165160725,2.419890169064825,0.9150119536583697,D,776,Incorrect
2,new_learn,4,47,B,34.06967810609295,60.98361319860628,1.7034839053046478,0.9579283560705152,D,2421,Incorrect
2,new_learn,4,48,D,62.904309395173506,31.88347233248701,3.1452154697586754,0.500824412253373,C,3235,Incorrect
2,new_learn,4,49,B,55.85239155433061,90.43663416276618,2.7926195777165304,1.4205753275056698,B,864,Correct
2,new_learn,4,50,D,50.488979801826005,6.785433706361026,2.5244489900913005,0.1065853434166218,C,1061,Incorrect
2,new_learn,4,51,C,92.45813684925962,61.289752919197056,4.622906842462981,0.9627371875564152,D,853,Incorrect
2,new_learn,4,52,C,77.60595805299269,28.757486402839167,3.8802979026496347,0.45172154009433946,B,839,Incorrect
2,new_learn,4,53,B,42.924973833539966,64.7592970365731,2.1462486916769983,1.0172366591086865,C,1453,Incorrect
2,new_learn,4,54,B,64.34923201108636,92.01412383928832,3.217461600554318,1.445354477400048,C,716,Incorrect
2,new_learn,4,55,C,91.08576419953084,29.7815667818557,4.5542882099765425,0.46780775707135847,D,381,Incorrect
2,new_learn,4,56,C,68.66853093270338,70.58255068625,3.433426546635169,1.108708113537761,B,1525,Incorrect
2,new_learn,4,57,A,2.072050592710159,51.80275218681083,0.10360252963550795,0.8137157285290875,A,831,Correct
2,new_learn,4,58,C,61.08003680705215,62.53995740181219,3.0540018403526075,0.9823753536467589,B,765,Incorrect
2,new_learn,4,59,B,61.380363705829694,74.8152147740873,3.069018185291485,1.175194645555076,C,565,Incorrect
2,new_learn,4,60,A,36.42281463068894,28.925775212994445,1.821140731534447,0.4543650145426654,D,511,Incorrect
2,new_learn,4,61,A,12.81228811807651,65.29426489868885,0.6406144059038255,1.025639914636334,A,812,Correct
2,new_learn,4,62,A,17.352694654164463,51.83474551128272,0.8676347327082232,0.8142182784947113,A,902,Correct
2,new_learn,4,63,B,49.57855856463813,72.66972217607257,2.478927928231906,1.1414933266338043,B,924,Correct
2,new_learn,4,64,B,66.79180965839586,84.9123334841404,3.3395904829197933,1.3337998153647104,C,1487,Incorrect
2,new_learn,4,65,C,64.60554062477007,56.67053733068264,3.2302770312385034,0.8901787187652934,B,757,Incorrect
2,new_learn,4,66,A,38.096116797061306,41.13105789731684,1.9048058398530654,0.6460851466229351,D,803,Incorrect
2,new_learn,4,67,B,56.85844025778917,88.64442007465703,2.8429220128894586,1.3924232944413506,C,990,Incorrect
2,new_learn,4,68,A,19.229228016869413,59.83802596060217,0.9614614008434706,0.9399335138157154,A,819,Correct
2,new_learn,4,69,B,72.94976694739921,72.05088738921755,3.6474883473699604,1.1317726925329565,D,2407,Incorrect
2,new_learn,4,70,C,83.80063487725735,48.48960676324805,4.190031743862868,0.7616729619143899,B,1228,Incorrect
2,new_learn,4,71,C,97.86953441860055,55.06344346612435,4.893476720930027,0.8649345473726656,C,790,Correct
2,new_learn,4,72,C,58.00404793377567,58.07704660195948,2.9002023966887833,0.9122721147345398,D,805,Incorrect
2,new_learn,4,73,B,57.08421864273346,54.733880068377104,2.854210932136673,0.8597577776263915,B,940,Correct
2,new_learn,4,74,D,65.44054810903418,45.13528414888231,3.272027405451709,0.7089833854990827,B,2151,Incorrect
2,new_learn,4,75,C,91.10788964423206,61.57212755227421,4.555394482211603,0.9671727179205917,C,782,Correct
2,new_learn,4,76,D,54.69209821235893,21.65483231950484,2.7346049106179464,0.3401533106483762,D,2437,Correct
2,new_learn,4,77,C,53.5683672155225,52.252451623147024,2.6784183607761247,0.8207795907566738,D,1071,Incorrect
2,new_learn,4,78,D,51.15035941311023,10.802660699000771,2.557517970655512,0.16968779745602003,C,843,Incorrect
2,new_learn,4,79,B,49.31650886012284,94.23909996022348,2.4658254430061417,1.4803043205797612,B,1710,Correct
2,new_learn,4,80,D,55.794433033976844,13.624852767538274,2.789721651698842,0.214018686803704,B,1175,Incorrect
2,new_learn,4,81,A,41.38361703066103,45.70875009410356,2.0691808515330514,0.7179913675020376,C,684,Incorrect
2,new_learn,4,82,A,24.719154050435847,49.653537923534934,1.2359577025217923,0.7799559498265978,A,758,Correct
2,new_learn,4,83,D,62.50845504537015,40.21878650033866,3.1254227522685074,0.6317552210288013,B,5973,Incorrect
2,new_learn,4,84,B,55.38185391642159,61.558885992954586,2.76909269582108,0.9669647199931888,D,806,Incorrect
2,new_learn,4,85,B,56.455149378197795,50.52083392171603,2.8227574689098898,0.7935794035084655,C,646,Incorrect
2,new_learn,4,86,C,86.57684982153778,70.85902767662216,4.328842491076889,1.11305100394696,C,1502,Correct
2,new_learn,4,87,C,100.54872029671242,57.39386329789951,5.0274360148356205,0.9015406964890897,C,596,Correct
2,new_learn,4,88,A,4.3459202848420375,42.31187224273626,0.21729601424210188,0.6646333349870506,A,750,Correct
2,new_learn,4,89,B,56.551381535936095,52.52459497004695,2.8275690767968045,0.8250544084533945,B,974,Correct
2,new_learn,4,90,D,54.704176758956805,41.32687146230509,2.73520883794784,0.6491609789091367,B,1037,Incorrect
2,new_learn,4,91,B,55.640625186237315,58.046722073869674,2.782031259311866,0.9117957781611872,D,827,Incorrect
2,new_learn,4,92,B,29.43717104889815,86.59460790813341,1.4718585524449077,1.3602249202234027,A,964,Incorrect
2,new_learn,4,93,B,42.90985180571026,95.86881317451831,2.1454925902855133,1.5059037958871955,B,829,Correct
2,new_learn,4,94,D,51.48724502717014,22.794157625766704,2.5743622513585067,0.35804979070938214,D,1904,Correct
2,new_learn,4,95,D,44.513714962212006,-0.891021670040832,2.2256857481106005,-0.013996135663947931,A,1682,Incorrect
2,new_learn,4,96,D,59.05724400982241,2.330656552349165,2.9528622004911202,0.03660986751450526,B,1152,Incorrect
2,new_learn,4,97,B,47.6590738779219,56.599107522845266,2.382953693896095,0.8890567019675474,D,999,Incorrect
2,new_learn,4,98,C,67.36141300690184,48.49469684886767,3.368070650345092,0.7617529167923337,B,2109,Incorrect
2,new_learn,4,99,C,64.10449742056318,29.056849022634502,3.205224871028159,0.4564239171298815,D,1853,Incorrect
2,new_learn,4,100,B,45.392152046776744,59.5006219697196,2.269607602338837,0.9346335843204728,B,533,Correct
2,new_learn,4,101,D,60.685205937150236,6.395372837347672,3.034260296857512,0.10045828161389576,D,1062,Correct
2,new_learn,4,102,A,31.167304464009508,69.59308503955151,1.5583652232004754,1.093165623504524,A,1007,Correct
2,new_learn,4,103,C,78.13169607209463,71.23022565232986,3.9065848036047317,1.1188817681145138,C,972,Correct
2,new_learn,4,104,B,31.380538886857313,83.24175188545281,1.5690269443428655,1.3075583809764144,D,2567,Incorrect
2,new_learn,4,105,B,72.63494845655983,75.42707643549008,3.631747422827991,1.1848057460574573,B,980,Correct
2,new_learn,4,106,A,19.482080017170805,60.94834479212485,0.9741040008585402,0.9573743612369859,A,736,Correct
2,new_learn,4,107,D,59.34356812308762,41.49262420041347,2.967178406154381,0.6517646168309051,D,1740,Correct
2,new_learn,4,108,C,84.6398731625513,50.4669281612443,4.231993658127565,0.7927326538030446,C,2568,Correct
2,new_learn,4,109,C,65.59015535234569,48.203897495644696,3.279507767617284,0.7571850512335642,B,1940,Incorrect
2,new_learn,4,110,B,66.50585826244128,62.03189724438122,3.325292913122064,0.9743947633559249,B,821,Correct
2,new_learn,4,111,A,37.47947638885637,68.66665837236661,1.8739738194428184,1.0786133474459352,A,648,Correct
2,new_learn,4,112,C,59.14912954605288,28.566954960992646,2.957456477302644,0.448728679204425,D,957,Incorrect
2,new_learn,4,113,C,80.18805293128332,59.29927194335742,4.009402646564166,0.931470785502375,C,2781,Correct
2,new_learn,4,114,D,33.45768647787099,33.80728661374502,1.6728843238935496,0.5310436163177294,A,843,Incorrect
2,new_learn,4,115,C,59.26868725936809,57.46433308652178,2.963434362968405,0.9026476333402685,B,1374,Incorrect
2,new_learn,4,116,C,86.30766676409775,45.89103713977832,4.315383338204887,0.7208547257197196,C,941,Correct
2,new_learn,4,117,D,58.739237424823415,-0.35023155386831206,2.9369618712411705,-0.005501424383440135,D,878,Correct
2,new_learn,4,118,C,54.2346975647018,45.20666216797386,2.71173487823509,0.7101045888011115,D,790,Incorrect
2,new_learn,4,119,B,41.9337208544317,69.29192113502147,2.096686042721585,1.0884349519545338,B,944,Correct
2,new_learn,4,120,C,62.57235099936113,53.286841277560114,3.1286175499680566,0.837027745452941,C,3077,Correct
2,new_learn,4,121,C,75.70690665831077,76.02213796752875,3.7853453329155387,1.19415295074489,C,892,Correct
2,new_learn,4,122,C,79.58156026334868,57.63164629612741,3.979078013167434,0.9052757830909963,B,828,Incorrect
2,new_learn,4,123,D,48.80115645496892,50.45881595511669,2.4400578227484457,0.7926052275671702,A,998,Incorrect
2,new_learn,4,124,A,30.906034614423717,62.62750155062764,1.545301730721186,0.9837504939206758,A,1078,Correct
2,new_learn,4,125,B,38.14062785433007,61.82775154379093,1.9070313927165035,0.9711880501897429,A,1508,Incorrect
2,new_learn,4,126,C,56.88366486848021,66.58814055100291,2.8441832434240104,1.0459640658561766,B,878,Incorrect
2,new_learn,4,127,B,46.65207750759032,99.27211839848736,2.332603875379516,1.5593627893349202,D,1359,Incorrect
2,new_learn,4,128,A,17.869969879053187,47.93811030972114,0.8934984939526593,0.7530100758799851,A,710,Correct
2,new_learn,4,129,B,45.53968201771405,88.16270033726498,2.2769841008857026,1.3848564585009502,B,2380,Correct
2,new_learn,4,130,B,24.785780169983607,78.23205882124185,1.2392890084991803,1.22886630634009,A,1310,Incorrect
2,new_learn,4,131,B,61.218764905598704,98.29571897901101,3.0609382452799356,1.5440255431189394,C,1359,Incorrect
2,new_learn,4,132,A,28.900994751294455,70.0282297296899,1.4450497375647229,1.1000008603134606,A,1390,Correct
2,new_learn,4,133,A,2.8267201409159206,52.522887146181674,0.14133600704579602,0.8250275820188506,A,829,Correct
2,new_learn,4,134,D,73.12348965165808,18.507967751124383,3.656174482582904,0.29072247759904585,C,1342,Incorrect
2,new_learn,4,135,D,44.739836638682846,25.77048291282739,2.236991831934142,0.4048017989919992,B,1437,Incorrect
2,new_learn,4,136,D,39.18940777130334,30.310304788992443,1.9594703885651668,0.47611315426583095,A,3925,Incorrect
2,new_learn,4,137,C,66.6325514482173,41.002607166539676,3.331627572410865,0.6440674472621463,C,908,Correct
2,new_learn,4,138,C,89.6488007380775,55.91114676588909,4.482440036903875,0.8782502396674895,D,1485,Incorrect
2,new_learn,4,139,B,35.75935043628628,92.73695640101114,1.7879675218143143,1.456708704728468,B,2910,Correct
2,new_learn,4,140,A,27.27336180178777,32.30347516154235,1.3636680900893885,0.507421801264609,B,1040,Incorrect
2,new_learn,4,141,A,19.485658972519882,34.25120075611151,0.9742829486259942,0.5380166033601455,A,1085,Correct
2,new_learn,4,142,D,32.77315265801378,30.524527423314535,1.6386576329006888,0.47947815553692563,B,1100,Incorrect
2,new_learn,4,143,A,20.902015662926626,34.36501804265773,1.0451007831463313,0.5398044411164711,A,1120,Correct
2,new_learn,4,144,C,82.24676259944766,74.46614791306466,4.112338129972383,1.1697115161240743,C,982,Correct
2,new_learn,4,145,D,33.552227789348485,14.107302405404713,1.6776113894674243,0.22159698799394534,D,2036,Correct
2,new_learn,4,146,D,28.322405614146927,26.788310336623315,1.4161202807073463,0.42078979477809664,B,2845,Incorrect
2,new_learn,4,147,D,31.370758509428338,34.4758226041853,1.568537925471417,0.5415449550988675,B,1439,Incorrect
2,new_learn,4,148,B,30.268763913941154,67.38959455848436,1.5134381956970577,1.0585532759666458,D,964,Incorrect
2,new_learn,4,149,B,69.71981515331069,82.27993533980637,3.485990757665535,1.2924502020068944,C,1007,Incorrect
2,new_learn,4,150,A,22.297711260092722,39.35362829710916,1.1148855630046361,0.6181653477515077,A,1820,Correct
2,new_learn,4,151,C,83.45319572126014,29.14140583142132,4.172659786063007,0.4577521323763598,C,662,Correct
2,new_learn,4,152,C,70.20332790546229,48.18802181126021,3.5101663952731146,0.7569356765663989,C,2036,Correct
2,new_learn,4,153,C,65.63317115762923,61.88559378031229,3.281658557881462,0.9720966339163564,C,2342,Correct
2,new_learn,4,154,A,43.01511567601931,48.396310652889106,2.1507557838009657,0.7602074700398292,B,5238,Incorrect
2,new_learn,4,155,C,83.13467896443767,25.101303215729484,4.156733948221883,0.39429034889032794,C,822,Correct
2,new_learn,4,156,B,72.31779549679369,74.22727276236542,3.6158897748396845,1.1659592740312648,C,1047,Incorrect
2,new_learn,4,157,D,54.58834108780421,-0.5182109615977204,2.7294170543902108,-0.008140038749825504,D,2571,Correct
2,new_learn,4,158,D,45.90097114377806,45.308858245517456,2.295048557188903,0.7117098810332948,D,1140,Correct
2,new_learn,4,159,A,10.92179024958712,35.31188608982563,0.546089512479356,0.5546778096209789,A,1031,Correct
2,new_learn,4,160,A,25.48443052036325,68.08085934635184,1.2742215260181624,1.0694116378628948,D,1079,Incorrect
2,new_learn,4,161,B,53.552914331121,73.13506880507877,2.6776457165560497,1.1488029743890977,C,1349,Incorrect
2,new_learn,4,162,D,71.78041301473445,12.829720201734373,3.5890206507367224,0.20152877366690633,C,765,Incorrect
2,new_learn,4,163,B,47.4944732854818,60.43229931452098,2.3747236642740903,0.949268337830193,B,1884,Correct
2,new_learn,4,164,D,61.12052314615724,26.887261761860913,3.0560261573078615,0.42234412013104,D,2383,Correct
2,new_learn,4,165,A,28.82698060625585,75.67550909585626,1.4413490303127927,1.188708117161048,B,1165,Incorrect
2,new_learn,4,166,B,41.69404245714896,71.8729676571935,2.084702122857448,1.1289779359176795,B,3064,Correct
2,new_learn,4,167,B,49.21646301455396,48.47212404302125,2.460823150727698,0.7613983439872438,D,2322,Incorrect
2,new_learn,4,168,C,51.465861579855584,59.07929429050159,2.573293078992779,0.9280153846115462,B,2023,Incorrect
2,new_learn,4,169,B,56.373511951480225,65.00316812791493,2.8186755975740114,1.0210673772535988,B,2252,Correct
2,new_learn,4,170,B,73.22637513354715,79.83539672393667,3.6613187566773577,1.2540514792217305,C,953,Incorrect
2,new_learn,4,171,B,56.715618374492564,100.3508891968219,2.8357809187246286,1.5763080814096952,D,4790,Incorrect
2,new_learn,4,172,B,33.81055247393782,85.92146512031407,1.6905276236968911,1.3496512180382516,B,1805,Correct
2,new_learn,4,173,C,83.33423850258418,68.84587891989153,4.166711925129209,1.081428537223318,C,918,Correct
2,new_learn,4,174,B,39.75026813425718,93.63003084637921,1.987513406712859,1.4707370853118535,B,4220,Correct
2,new_learn,4,175,A,10.224298793523777,40.225040680195576,0.5112149396761889,0.631853461456265,A,949,Correct
2,new_learn,4,176,C,89.5628496683997,37.340727160781,4.478142483419986,0.5865467706400522,C,1143,Correct
2,new_learn,4,177,B,47.477706889344915,65.82156908732561,2.373885344467246,1.0339227894624758,B,4379,Correct
2,new_learn,4,178,C,73.59251216046938,37.62445002236368,3.679625608023469,0.5910034789280704,C,6545,Correct
2,new_learn,4,179,C,74.1332880661745,27.45750736783086,3.706664403308725,0.43130151716332527,C,1396,Correct
2,new_learn,4,180,C,95.45705115706427,38.72961772420879,4.772852557853214,0.6083634125935768,C,1134,Correct
2,new_learn,4,181,A,14.725399758292594,65.96833031122269,0.7362699879146297,1.0362281093766104,A,884,Correct
2,new_learn,4,182,D,72.42249250063995,17.46239039234171,3.6211246250319973,0.2742985868534885,C,1060,Incorrect
2,new_learn,4,183,A,11.440922300913636,55.79116745880758,0.5720461150456818,0.8763656091189389,A,773,Correct
2,new_learn,4,184,B,50.61602985713718,73.67804684223613,2.5308014928568587,1.1573320534520684,D,1493,Incorrect
2,new_learn,4,185,D,40.4973948972755,46.264935079988376,2.024869744863775,0.726727900830501,B,1656,Incorrect
2,new_learn,4,186,B,58.614067001262754,58.52865007271507,2.930703350063138,0.919365885464847,D,6892,Incorrect
2,new_learn,4,187,B,71.34178562216863,77.96871398617039,3.5670892811084314,1.224729695343983,C,1397,Incorrect
2,new_learn,4,188,C,89.46327165696519,41.85224562795673,4.473163582848259,0.6574135370051218,C,821,Correct
2,new_learn,4,189,B,57.9989537681263,97.09705631738188,2.8999476884063147,1.5251969940594063,D,2748,Incorrect
2,new_learn,4,190,B,40.7529452363094,50.57910710824521,2.0376472618154704,0.7944947565819722,B,1501,Correct
2,new_learn,4,191,A,18.22157335843213,39.62741952807127,0.9110786679216065,0.622466050350547,A,765,Correct
2,new_learn,4,192,D,64.39617844139822,13.141084109654672,3.2198089220699107,0.20641966649548343,C,734,Incorrect
2,new_learn,4,193,A,16.643685707392237,27.885261571269332,0.8321842853696119,0.4380206644786475,A,1165,Correct
2,new_learn,4,194,D,30.318259721654105,20.55876958421596,1.5159129860827054,0.3229363974630907,B,1958,Incorrect
2,new_learn,4,195,B,48.83166582210573,97.6430338822305,2.441583291105286,1.533773189593173,B,1791,Correct
2,new_learn,4,196,B,56.0571681430293,49.584691327743606,2.802858407151465,0.7788745100287843,D,1739,Incorrect
2,new_learn,4,197,B,24.879097462306934,73.35982458427767,1.2439548731153467,1.1523334299130132,A,782,Incorrect
2,new_learn,4,198,A,45.8083900896616,62.73153413127997,2.29041950448308,0.9853846338762325,B,912,Incorrect
2,new_learn,4,199,C,100.57144302936891,53.42843886993553,5.028572151468445,0.839251955232804,C,893,Correct
2,new_learn,4,200,B,26.328345865082294,69.00341417933883,1.3164172932541147,1.0839030952921231,A,1613,Incorrect
2,new_learn,4,201,D,39.04857437534572,44.06606926183037,1.952428718767286,0.6921881973277264,B,3854,Incorrect
2,new_learn,4,202,D,64.9323812159857,31.413995352766733,3.2466190607992846,0.49344988510077936,B,2317,Incorrect
2,new_learn,4,203,B,53.731614659744,84.37583219354342,2.6865807329871996,1.3253724727988059,D,2780,Incorrect
2,new_learn,4,204,B,68.01175010131311,63.27750120677094,3.4005875050656558,0.9939606646435544,C,960,Incorrect
2,new_learn,4,205,A,31.257449090201423,35.37532873062408,1.5628724545100712,0.5556743642922627,A,780,Correct
2,new_learn,4,206,D,58.27212883058408,18.694635977887295,2.9136064415292036,0.29365465524833084,B,621,Incorrect
2,new_learn,4,207,A,37.61958005578492,60.085361620504436,1.8809790027892461,0.9438186532763143,B,1449,Incorrect
2,new_learn,4,208,C,91.1610655572304,42.520935307187784,4.558053277861521,0.6679172899241401,C,845,Correct
2,new_learn,4,209,B,31.7378573794623,91.54545458428373,1.5868928689731152,1.4379926379576191,D,2668,Incorrect
2,new_learn,4,210,C,66.5174479005561,63.47001145357396,3.3258723950278055,0.9969846085290399,C,4437,Correct
2,new_learn,4,211,D,56.455766142151305,30.65689053685395,2.8227883071075657,0.4815573104624341,B,2110,Incorrect
2,new_learn,4,212,D,45.58771451596151,4.854837232862206,2.2793857257980754,0.07625960492567052,D,1381,Correct
2,new_learn,4,213,A,8.744089018456673,62.403071463411905,0.4372044509228337,0.9802251543544684,A,829,Correct
2,new_learn,4,214,B,44.65539126442593,61.636543207137045,2.2327695632212965,0.9681845566610581,B,2213,Correct
2,new_learn,4,215,B,46.375185171072,85.50602064407018,2.3187592585536,1.3431254314655403,B,1767,Correct
2,new_learn,4,216,A,27.152277971071438,56.89342029792886,1.3576138985535717,0.8936797562278486,B,1619,Incorrect
2,new_learn,4,217,A,31.584491038646682,29.065236785991967,1.5792245519323342,0.45655567180860085,D,1861,Incorrect
2,new_learn,4,218,D,33.8355733498245,35.51927654119502,1.691778667491225,0.5579354912132127,B,807,Incorrect
2,new_learn,4,219,A,44.43368674476885,48.91168461248972,2.2216843372384427,0.7683029452664933,B,906,Incorrect
2,new_learn,4,220,D,33.92338197284523,16.827056052257962,1.6961690986422613,0.2643187783765864,D,1621,Correct
2,new_learn,4,221,A,45.69810715133064,36.99921291306988,2.284905357566532,0.5811822773815248,D,1455,Incorrect
2,new_learn,4,222,A,46.708979730173,42.94674642150969,2.33544898650865,0.6746059152669928,B,1814,Incorrect
2,new_learn,4,223,B,64.28020445512202,96.63715361729446,3.214010222756101,1.5179728593396027,C,1291,Incorrect
2,new_learn,4,224,B,54.4385772057528,92.15531369671469,2.72192886028764,1.4475722824943085,B,2463,Correct
2,new_learn,4,225,D,44.24540282261788,28.483427409873237,2.2122701411308943,0.44741663149957944,D,1285,Correct
2,new_learn,4,226,A,27.173590053049544,54.55978788864127,1.3586795026524772,0.8570231440618639,A,1932,Correct
2,new_learn,4,227,A,18.921532035744153,60.17533172047444,0.9460766017872076,0.9452319003018567,A,908,Correct
2,new_learn,4,228,A,50.47969587584342,52.36086783454585,2.523984793792171,0.8224825886229767,D,935,Incorrect
2,new_learn,4,229,D,37.67414006057975,45.25656131530362,1.8837070030289877,0.7108884027744694,B,701,Incorrect
2,new_learn,4,230,B,64.93448779130767,81.78171087808795,3.246724389565384,1.2846241104630278,C,863,Incorrect
2,new_learn,4,231,D,34.250488183728145,15.099484523942769,1.7125244091864074,0.23718214826705686,B,2822,Incorrect
2,new_learn,4,232,C,79.17543043394373,58.400499159191526,3.958771521697187,0.9173528956224648,C,806,Correct
2,new_learn,4,233,D,28.355387427381526,16.34716390385775,1.4177693713690764,0.2567806501369388,B,1734,Incorrect
2,new_learn,4,234,C,66.7318353693764,51.793897728225986,3.33659176846882,0.8135766430188792,D,4021,Incorrect
2,new_learn,4,235,B,29.46125008787485,80.00893246282806,1.4730625043937424,1.2567773722339124,A,1331,Incorrect
2,new_learn,4,236,C,62.9915631391626,62.11410476737345,3.14957815695813,0.9756860761074357,C,1311,Correct
2,new_learn,4,237,A,29.727898394687998,35.272558714869206,1.4863949197344,0.5540600566597387,B,3670,Incorrect
2,new_learn,4,238,B,24.695107320235586,81.68397257729916,1.2347553660117794,1.2830888408243657,D,613,Incorrect
2,new_learn,4,239,A,43.00663841402252,66.96638732998827,2.150331920701126,1.0519055523666987,B,789,Incorrect
2,new_learn,4,240,A,39.333718803551136,48.92231130699183,1.9666859401775567,0.7684698689933921,A,2567,Correct
2,new_learn,4,241,B,39.1870679977545,50.534842152212676,1.9593533998877248,0.7937994442785559,A,630,Incorrect
2,new_learn,4,242,C,64.15460066995408,57.97266228052947,3.2077300334977044,0.9106324496477675,C,1149,Correct
2,new_learn,4,243,C,64.49606161593518,57.60465058780229,3.2248030807967587,0.9048517354962331,B,853,Incorrect
2,new_learn,4,244,C,77.20752140490951,25.98792130413129,3.8603760702454757,0.40821731325564264,C,503,Correct
2,new_learn,4,245,D,50.89204514577251,26.649156915006568,2.5446022572886253,0.41860397794273135,B,3572,Incorrect
2,new_learn,4,246,A,14.424231272078162,65.91640812782313,0.7212115636039081,1.0354125176269784,A,712,Correct
2,new_learn,4,247,A,42.561544734279536,46.593893680089145,2.128077236713977,0.7318951704375599,D,5197,Incorrect
2,new_learn,4,248,C,84.30318251789379,58.912012502025455,4.215159125894689,0.9253877284227661,C,830,Correct
2,new_learn,4,249,D,64.19835047464181,26.929693151586836,3.2099175237320905,0.4230106308422628,B,5646,Incorrect
2,new_learn,4,250,A,47.351571958541925,46.9453472130557,2.3675785979270962,0.7374157896237893,A,1023,Correct
2,new_learn,4,251,C,75.17021588609974,76.34670145030258,3.7585107943049874,1.1992511820104188,C,894,Correct
2,new_learn,4,252,B,26.718717129324137,86.08545628215194,1.3359358564662067,1.3522271851846692,D,5490,Incorrect
2,new_learn,4,253,A,27.532338097031364,47.274151861780396,1.3766169048515682,0.7425806409682878,B,736,Incorrect
2,new_learn,4,254,A,17.528335774836584,69.11533104357267,0.8764167887418293,1.0856610812845722,A,1014,Correct
2,new_learn,4,255,A,34.31784761599583,50.103446070796046,1.7158923807997917,0.7870230904777262,A,1467,Correct
2,new_learn,4,256,D,56.912678748803515,34.05446603709093,2.8456339374401756,0.53492630162024,C,1878,Incorrect
2,new_learn,4,257,D,70.41046456405061,24.56988029806022,3.5205232282025305,0.38594277721983294,C,1133,Incorrect
2,new_learn,4,258,B,35.58127276909697,91.89468120341365,1.7790636384548486,1.4434782768631018,B,2565,Correct
2,new_learn,4,259,B,71.05955012423854,86.99968924411486,3.552977506211927,1.3665879229695308,C,1142,Incorrect
2,new_learn,4,260,B,59.38505276233948,63.8810084399309,2.969252638116974,1.0034405340939725,C,2462,Incorrect
2,new_learn,4,261,B,35.03475464033357,65.40575550120232,1.7517377320166785,1.027391204925337,D,1926,Incorrect
2,new_learn,4,262,C,64.98888731268886,72.97214929283622,3.249444365634443,1.1462438406751596,C,1310,Correct
2,new_learn,4,263,A,20.81599987741953,36.896106866374495,1.0407999938709764,0.5795626913873302,A,2595,Correct
2,new_learn,4,264,A,35.95648955494707,65.81241346117802,1.7978244777473535,1.0337789732232545,B,2813,Incorrect
2,new_learn,4,265,A,47.881468213609466,43.54626183377302,2.3940734106804733,0.6840230813413946,A,1061,Correct
2,new_learn,4,266,C,92.77347026420458,47.88530787933539,4.638673513210229,0.7521806572430276,C,876,Correct
2,new_learn,4,267,B,25.501773785149982,84.56294231773731,1.275088689257499,1.328311591756705,A,1848,Incorrect
2,new_learn,4,268,A,0.3998959903737429,45.712437099866506,0.019994799518687146,0.7180492828531306,A,1142,Correct
2,new_learn,4,269,B,43.65350791006381,91.13043507091473,2.1826753955031903,1.431473526686137,A,2541,Incorrect
2,new_learn,4,270,B,47.1738428177576,55.55936304024805,2.35869214088788,0.8727244338268578,B,926,Correct
2,new_learn,4,271,A,34.047734528748855,25.845686369799168,1.7023867264374428,0.40598309213173456,D,1485,Incorrect
2,new_learn,4,272,B,73.79603094421952,83.80946660591061,3.689801547210976,1.3164760229520394,C,803,Incorrect
2,new_learn,4,273,C,73.86579174873083,51.138331793159836,3.6932895874365412,0.8032790373911415,C,759,Correct
2,new_learn,4,274,D,48.432286502137735,7.737099352323877,2.4216143251068867,0.12153407242677518,A,3972,Incorrect
2,new_learn,4,275,B,55.87250888190173,90.42126742279882,2.7936254440950865,1.4203339473187144,B,836,Correct
2,new_learn,4,276,C,61.52583145224807,33.414358180932936,3.0762915726124036,0.5248715109281846,B,1149,Incorrect
2,new_learn,4,277,A,44.46228253857973,50.02689739860355,2.2231141269289862,0.7858206667467162,A,5271,Correct
2,new_learn,4,278,C,66.82036910494801,50.946864821889164,3.3410184552474003,0.8002714812393964,C,1246,Correct
2,new_learn,4,279,A,28.308003240662043,36.31448350276898,1.4154001620331023,0.5704265729560338,A,4374,Correct
2,new_learn,4,280,A,26.514877151037222,69.68085719047151,1.3257438575518612,1.0945443452271242,A,1551,Correct
2,new_learn,4,281,D,33.33478033277888,34.44649908852268,1.6667390166389437,0.5410843423919518,A,2947,Incorrect
2,new_learn,4,282,D,54.46865508971607,10.760949166683579,2.7234327544858035,0.16903259423853167,D,2589,Correct
2,new_learn,4,283,C,92.01111870427958,68.34896859856515,4.600555935213979,1.0736230881484587,C,879,Correct
2,new_learn,4,284,D,41.68624606305228,2.8873705520404336,2.0843123031526143,0.045354710572408655,B,2149,Incorrect
2,new_learn,4,285,D,54.28235848685755,26.554580192719303,2.7141179243428777,0.41711837026303994,D,933,Correct
2,new_learn,4,286,A,3.015996590557883,50.40692724686798,0.15079982952789414,0.7917901616439783,A,918,Correct
2,new_learn,4,287,D,43.887247381406674,27.50131026380282,2.1943623690703338,0.4319895714442825,D,789,Correct
2,new_learn,4,288,A,8.648449591211442,59.76889121850022,0.4324224795605721,0.938847547826239,A,797,Correct
2,new_learn,4,289,B,56.842752616816455,59.79324461377014,2.842137630840823,0.9392300900645888,D,1436,Incorrect
2,new_learn,4,290,B,27.596580202609285,88.58338144751077,1.3798290101304642,1.391464501928211,B,3087,Correct
2,new_learn,4,291,D,45.10662253150226,43.09273461898894,2.255331126575113,0.676899092510551,D,2382,Correct
2,new_learn,4,292,C,82.42092736913115,72.76134244168503,4.1210463684565575,1.1429324944006445,C,1135,Correct
2,new_learn,4,293,A,6.589861512325218,57.84153567783677,0.32949307561626084,0.9085727177892194,A,806,Correct
2,new_learn,4,294,C,75.76612883395794,30.997572254544053,3.788306441697897,0.4869087263699719,D,2810,Incorrect
2,new_learn,4,295,C,98.51697689548475,47.74890256085557,4.9258488447742375,0.7500380075107936,C,831,Correct
2,new_learn,4,296,A,31.046331842298173,49.50078682543983,1.5523165921149087,0.7775565411885809,D,2989,Incorrect
2,new_learn,4,297,D,60.94904830908372,34.20053963795756,3.047452415454186,0.53722082037707,D,982,Correct
2,new_learn,4,298,B,61.21655750379084,88.00166594483396,3.060827875189542,1.3823269361797672,D,2627,Incorrect
2,new_learn,4,299,C,56.38154059527251,30.964182460460517,2.8190770297636254,0.4863842407109834,B,4591,Incorrect
2,new_learn,4,300,A,19.44156926649131,56.49509763503549,0.9720784633245656,0.8874229184703281,A,1494,Correct
2,new_learn,4,301,A,19.940871305101837,50.73966674721067,0.9970435652550919,0.7970168214931568,A,773,Correct
2,new_learn,4,302,A,39.196957271960336,56.43243531773435,1.959847863598017,0.8864386210918773,B,949,Incorrect
2,new_learn,4,303,B,28.362415972601863,89.60686957567472,1.418120798630093,1.4075414158505921,A,2134,Incorrect
2,new_learn,4,304,A,32.979689667196865,48.81565356742271,1.648984483359843,0.7667944931379977,B,1806,Incorrect
2,new_learn,4,305,D,64.4980542322559,7.435972021200701,3.2249027116127946,0.11680397537051684,D,2406,Incorrect
2,new_learn,4,306,A,38.20161859196017,28.694170021714662,1.9100809295980086,0.45072696870537626,A,2893,Incorrect
2,new_learn,4,307,B,42.41491139340691,64.24768122664256,2.1207455696703454,1.0092002167589957,D,1436,Correct
2,new_learn,4,308,A,48.737909417130595,54.54351684743856,2.4368954708565296,0.8567675591443205,D,639,Correct
2,new_learn,4,309,C,64.09238113939756,68.34199884661855,3.204619056969878,1.0735136075408946,C,4405,Incorrect
2,new_learn,4,310,B,34.2774830297722,72.67522515132873,1.71387415148861,1.1415797671669925,A,1781,Correct
2,new_learn,4,311,D,46.34703998991067,47.884961425190156,2.317351999495534,0.7521752151540401,D,2294,Correct
2,new_learn,4,312,A,21.766755957054833,70.98543157940053,1.0883377978527418,1.115036551808728,A,988,Incorrect
2,new_learn,4,313,C,76.76889924212016,42.954624817737866,3.8384449621060077,0.6747296688255554,C,3022,Incorrect
2,new_learn,4,314,D,43.324156756560576,28.000436507669946,2.1662078378280287,0.4398298281490167,B,3054,Incorrect
2,new_learn,4,315,A,17.401325046479514,59.8291683915027,0.8700662523239757,0.9397943794456579,A,845,Incorrect
2,new_learn,4,316,D,35.32573660564324,31.34791313012188,1.7662868302821622,0.4924118679748096,D,4333,Correct
2,new_learn,4,317,D,43.7750445289046,34.141911733245735,2.18875222644523,0.5362998954033799,D,1614,Correct
2,new_learn,4,318,A,50.20878058971317,52.535614163425095,2.5104390294856587,0.8252274975382209,D,2958,Incorrect
2,new_learn,4,319,C,94.40615176223349,50.73700540451086,4.720307588111675,0.7969750172197848,C,655,Incorrect
2,new_learn,4,320,A,13.830749158169777,26.37055891875713,0.6915374579084889,0.41422777085112106,A,726,Incorrect
2,new_learn,4,321,A,17.79395553070536,44.519119481379455,0.889697776535268,0.6993046935349396,A,613,Incorrect
2,new_learn,4,322,A,46.56373935738795,54.73309609210327,2.3281869678693976,0.8597454629558793,D,3622,Incorrect
2,new_learn,4,323,B,31.102075331166375,71.57778640770303,1.5551037665583187,1.124341239693296,D,1031,Incorrect
2,new_learn,4,324,C,78.32758362769665,46.20839503531816,3.9163791813848325,0.7258397718856532,C,654,Incorrect
2,new_learn,4,325,D,58.55671450046978,29.032673119499865,2.9278357250234888,0.45604416293147315,D,1639,Incorrect
2,new_learn,4,326,A,45.66706415401978,41.27732492191489,2.2833532077009893,0.6483827036726336,D,1555,Incorrect
2,new_learn,4,327,A,33.280829255596075,47.22712490501055,1.6640414627798037,0.7418419432587435,A,847,Correct
2,new_learn,4,328,C,74.38276251133783,46.02668461379879,3.7191381255668916,0.7229854712590232,C,1652,Incorrect
2,new_learn,4,329,A,25.536035762755517,39.299736441749516,1.2768017881377758,0.6173188164670769,A,1487,Correct
2,new_learn,4,330,D,66.31544402071681,22.820304789039916,3.315772201035841,0.35846050938963886,B,565,Incorrect
2,new_learn,4,331,A,27.210224108472058,58.73117267674219,1.3605112054236028,0.9225471030898343,A,1070,Incorrect
2,new_learn,4,332,D,51.91623914569483,0.5320698097126453,2.5958119572847416,0.008357733026950828,C,1411,Incorrect
2,new_learn,4,333,A,39.124659844081734,69.7687574793323,1.9562329922040869,1.0959250797357911,D,863,Incorrect
2,new_learn,4,334,B,38.178140758893456,69.80139561142447,1.9089070379446726,1.0964377583158296,B,1672,Correct
2,new_learn,4,335,A,35.19179190283052,27.891838671458956,1.7595895951415261,0.43812397732683583,B,2173,Incorrect
2,new_learn,4,336,D,28.69476139975026,31.495601395787,1.434738069987513,0.49473174982698437,B,1651,Incorrect
2,new_learn,4,337,B,62.811578098791784,88.1532792786804,3.140578904939589,1.3847084728587584,A,2757,Incorrect
2,new_learn,4,338,B,53.095751895829686,99.28266304532966,2.6547875947914843,1.5595284242601926,C,3070,Incorrect
2,new_learn,4,339,C,78.4243871779527,47.12185511443072,3.9212193588976345,0.7401883692550909,D,805,Incorrect
2,new_learn,4,340,B,23.577221346133875,76.48798790608203,1.178861067306694,1.2014705044680611,A,1046,Incorrect
2,new_learn,4,341,B,58.042321885106404,73.92669290622318,2.90211609425532,1.1612377766918969,A,2471,Incorrect
2,new_learn,4,342,C,83.21602829709582,71.8294050639442,4.160801414854791,1.1282936563030628,D,1068,Incorrect
2,new_learn,4,343,B,43.02026215969039,100.0847188737846,2.1510131079845194,1.572127087752407,D,1213,Incorrect
2,new_learn,4,344,D,42.06259382685444,18.197890898379924,2.1031296913427218,0.28585180178589464,D,336,Correct
2,new_learn,4,345,C,90.98236768522933,63.76735578570303,4.549118384261467,1.001655282376056,D,1798,Incorrect
2,new_learn,4,346,B,46.916715723582165,98.08207085795206,2.345835786179108,1.5406695662810788,D,2396,Incorrect
2,new_learn,4,347,D,45.91908871565645,22.179814124433207,2.2959544357828223,0.34839970555653244,A,374,Incorrect
2,new_learn,4,348,C,72.7008566689185,60.21566429547915,3.635042833445925,0.9458654429085325,B,685,Incorrect
2,new_learn,4,349,D,29.021853211417216,32.383186121511606,1.4510926605708607,0.5086738980958591,A,1966,Correct
2,new_learn,4,350,C,84.73935136865816,53.01355414718537,4.236967568432908,0.8327349612474113,B,2088,Incorrect
2,new_learn,4,351,A,40.89648764017441,46.103614450837966,2.044824382008721,0.724193882313444,D,1684,Incorrect
2,new_learn,4,352,D,59.84499564834559,0.6115259330865079,2.9922497824172796,0.009605826894321084,C,317,Correct
2,new_learn,4,353,C,72.05397592322647,34.5085327012506,3.6026987961613237,0.5420587641020601,C,999,Incorrect
2,new_learn,4,354,D,57.4985996120369,21.247774685362835,2.874929980601845,0.3337592642833353,B,1334,Incorrect
2,new_learn,4,355,C,69.3694750374019,51.64319528357592,3.468473751870095,0.8112094145539259,C,527,Incorrect
2,new_learn,4,356,D,45.518313811056764,37.22533226731191,2.2759156905528384,0.5847341518921308,D,445,Incorrect
2,new_learn,4,357,A,8.705127823146292,71.0450707184533,0.43525639115731457,1.115973361214301,A,2151,Incorrect
2,new_learn,4,358,D,30.91474281885081,10.134700057677442,1.5457371409425407,0.15919549623767754,B,3500,Incorrect
2,new_learn,4,359,C,74.84588230178464,47.74632776235756,3.7422941150892317,0.7499975626705645,C,3523,Incorrect
2,new_learn,4,360,D,28.691084630570437,33.14123204637575,1.4345542315285218,0.5205812556390434,A,1510,Incorrect
2,new_learn,4,361,C,74.5675696559881,30.29985815218088,3.728378482799405,0.4759490588785213,B,335,Incorrect
2,new_learn,4,362,D,62.984706033386274,19.167169820980778,3.1492353016693135,0.30107719949850603,D,459,Incorrect
2,new_learn,4,363,B,31.124526557025227,57.145260601458446,1.5562263278512614,0.8976356544650804,A,726,Incorrect
2,new_learn,4,364,A,42.04056844024086,57.336392211057856,2.102028422012043,0.9006379427680119,B,798,Correct
2,new_learn,4,365,B,52.006865058926685,72.32326875345797,2.6003432529463346,1.1360512489973191,C,860,Incorrect
2,new_learn,4,366,C,52.55434002837218,60.302575187699986,2.627717001418609,0.9472306360111222,D,551,Incorrect
2,new_learn,4,367,C,83.72274293116169,37.628456623631,4.186137146558084,0.5910664144736069,B,4180,Incorrect
2,new_learn,4,368,C,81.74681886838542,74.80181431261988,4.087340943419271,1.1749841515985722,C,328,Correct
2,new_learn,4,369,C,76.26865980794881,40.93916569102963,3.81343299039744,0.64307091089517,D,2325,Incorrect
2,new_learn,4,370,B,35.374753341411676,57.50726129606669,1.7687376670705839,0.9033219480789588,A,710,Incorrect
2,new_learn,4,371,A,24.66523965763201,37.17067178441897,1.2332619828816005,0.5838755470346403,B,707,Incorrect
2,new_learn,4,372,B,42.375767169923584,82.34103878223635,2.1187883584961793,1.2934100126361299,D,935,Incorrect
2,new_learn,4,373,C,55.49059852271833,38.650647555366945,2.774529926135916,0.6071229520821455,A,1887,Incorrect
2,new_learn,4,374,A,2.365076354784925,56.948743987439684,0.11825381773924626,0.894548778710532,B,2230,Incorrect
2,new_learn,4,375,B,47.66142657354703,90.06686810323677,2.3830713286773517,1.4147670558248477,D,762,Incorrect
2,new_learn,4,376,D,63.5212044551567,9.61921619816899,3.176060222757835,0.15109829470729821,B,3998,Correct
2,new_learn,4,377,A,31.180629449499204,39.08042800748135,1.55903147247496,0.613873927637241,A,4534,Incorrect
2,new_learn,4,378,B,46.92441064748125,61.45127924503149,2.3462205323740624,0.9652744371494293,B,3238,Correct
2,new_learn,4,379,D,50.66134337526281,35.32245870179107,2.5330671687631408,0.5548438838213784,B,2763,Incorrect
2,new_learn,4,380,A,24.142287437835144,54.18781474636056,1.2071143718917572,0.8511802036062549,D,1272,Incorrect
2,new_learn,4,381,C,80.24740397374045,61.57656345012822,4.012370198687022,0.9672423968411429,C,949,Incorrect
2,new_learn,4,382,B,44.31366772559247,61.90410325651486,2.2156833862796232,0.9723873800886554,A,863,Correct
2,new_learn,4,383,A,22.0060534224331,24.40224125631582,1.100302671121655,0.38330950930983765,D,1829,Incorrect
2,new_learn,4,384,B,34.46104067926979,81.5782412271615,1.7230520339634896,1.2814280166601328,C,574,Incorrect
2,new_learn,4,385,C,59.46404951074287,68.61433359196224,2.9732024755371436,1.0777914317173396,A,1189,Incorrect
2,new_learn,4,386,A,12.231071686056703,44.987619327446474,0.6115535843028351,0.7066638719080002,D,1782,Incorrect
2,new_learn,4,387,D,44.44235959365635,32.0475574116334,2.2221179796828174,0.503401854649423,B,686,Correct
2,new_learn,4,388,A,20.392017799882687,68.9729600607716,1.0196008899941345,1.0834247231163112,D,1695,Incorrect
2,new_learn,4,389,C,71.02230253379345,72.87066059803345,3.5511151266896723,1.1446496599850855,B,1860,Correct
2,new_learn,4,390,B,45.744075579900006,59.53634014806076,2.2872037789950004,0.9351946441538538,C,1438,Incorrect
2,new_learn,4,391,D,31.55563953575456,5.56493740868904,1.577781976787728,0.08741383240412255,B,957,Incorrect
2,new_learn,4,392,A,37.08053706075657,28.64356445657004,1.8540268530378285,0.44993205834693073,A,524,Incorrect
2,new_learn,4,393,D,30.543635084205523,20.395794843019505,1.5271817542102761,0.3203763962147733,D,1464,Incorrect
2,new_learn,4,394,A,37.57132997381941,26.773399013133773,1.8785664986909705,0.4205555682564464,B,539,Incorrect
2,new_learn,4,395,C,91.66622066575245,31.412646999221057,4.583311033287623,0.4934287052128117,C,1897,Correct
2,new_learn,4,396,D,42.36640122493617,33.4739166840115,2.1183200612468083,0.5258070537068367,B,2899,Incorrect
2,new_learn,4,397,D,52.20514384964367,46.883024354191924,2.610257192482184,0.7364368244460034,B,1447,Incorrect
2,new_learn,4,398,B,35.10008297125154,80.56638044104848,1.755004148562577,1.2655337445995916,B,612,Correct
2,new_learn,4,399,A,45.002467663495565,52.52883755441183,2.2501233831747784,0.8251210508127593,B,989,Incorrect
2,new_learn,4,400,C,92.79233512069835,48.125891253122184,4.6396167560349175,0.7559597320413497,C,951,Incorrect
2,new_learn,4,401,B,47.79612520669227,91.47791650497722,2.3898062603346135,1.4369317522886844,D,782,Incorrect
2,new_learn,4,402,A,43.07585058911328,53.044170636472245,2.153792529455664,0.8332158839365231,D,549,Incorrect
2,new_learn,4,403,A,19.27201529906221,32.421943192984926,0.9636007649531106,0.5092826927509352,D,764,Incorrect
2,new_learn,4,404,D,71.2586016705323,20.0045204963245,3.562930083526615,0.31423027314919744,D,894,Incorrect
2,new_learn,4,405,B,47.91133688555674,79.69483370420099,2.395566844277837,1.2518435204708904,D,568,Correct
2,new_learn,4,406,C,97.8031419886297,53.3562425585294,4.890157099431486,0.8381178982251554,C,1603,Correct
2,new_learn,4,407,A,31.85298495607296,60.82287152630611,1.592649247803648,0.9554034317863955,B,2160,Incorrect
2,new_learn,4,408,D,62.70465234583641,32.4994049780566,3.13523261729182,0.5104994596255109,C,2165,Incorrect
2,new_learn,4,409,C,95.57735485044276,49.4301254745193,4.778867742522138,0.7764465952838576,C,675,Correct
2,new_learn,4,410,D,51.31877581345069,18.49381876458284,2.5659387906725346,0.2905002258381726,D,4717,Correct
2,new_learn,4,411,D,61.40366209172038,16.85877059163989,3.070183104586019,0.26481694919625764,B,2582,Incorrect
2,new_learn,4,412,D,47.567006554934785,8.313328452317442,2.3783503277467393,0.1305854579633974,D,1199,Incorrect
2,new_learn,4,413,C,50.09360588840693,58.52058440240715,2.5046802944203463,0.9192391902119188,A,1426,Correct
2,new_learn,4,414,C,71.70949373875098,24.86750912454175,3.585474686937549,0.39061791989368755,C,1734,Incorrect
2,new_learn,4,415,C,51.16875639216863,51.80801961787023,2.5584378196084314,0.8137984691426849,D,2393,Incorrect
2,new_learn,4,416,B,43.86190729633167,98.54464100892538,2.1930953648165836,1.5479356012214172,B,738,Correct
2,new_learn,4,417,B,27.576471436407267,73.780682190292,1.3788235718203634,1.158944245729323,A,2863,Incorrect
2,new_learn,4,418,A,40.046036048149425,36.47737408733721,2.0023018024074712,0.5729852522751262,A,3678,Incorrect
2,new_learn,4,419,D,70.46796147299655,31.963739144841853,3.5233980736498274,0.5020852403934783,B,3092,Correct
2,new_learn,4,420,B,67.46844772901183,82.66129101357446,3.3734223864505912,1.2984405229224674,D,2591,Incorrect
2,new_learn,4,421,A,37.68195625872845,27.156071546779526,1.8840978129364225,0.4265665743586068,D,917,Incorrect
2,new_learn,4,422,A,1.7077481105965902,43.337299015035974,0.08538740552982951,0.680740701060306,A,966,Correct
2,new_learn,4,423,C,67.61393401798034,58.170473146694384,3.380696700899017,0.9137396554674871,C,1741,Incorrect
2,new_learn,4,424,C,93.54906780444514,52.00664841148472,4.677453390222257,0.8169185229367383,C,565,Correct
2,new_learn,4,425,A,27.271674615887758,47.53366159882198,1.3635837307943879,0.746657010385412,A,2654,Incorrect
2,new_learn,4,426,B,63.2239931905213,72.5534316355162,3.1611996595260647,1.139666639094335,B,2861,Incorrect
2,new_learn,4,427,D,29.993206210723137,27.1505385533051,1.499660310536157,0.4264796623003487,A,1668,Incorrect
2,new_learn,4,428,C,67.76285679684239,72.13782883494481,3.388142839842119,1.133138365568903,C,1991,Correct
2,new_learn,4,429,D,46.24163824329875,31.946299770300662,2.3120819121649374,0.5018113033387692,B,3381,Incorrect
2,new_learn,4,430,D,38.583911278183955,24.778091075665518,1.9291955639091978,0.389213344466448,D,1267,Correct
2,new_learn,4,431,A,38.05515476071264,45.8416073353759,1.902757738035632,0.7200782841678246,B,4849,Incorrect
2,new_learn,4,432,D,56.65333947875641,38.384600750988895,2.8326669739378203,0.60294389865142,D,1619,Incorrect
2,new_learn,4,433,A,30.42444351940363,68.73135430542958,1.5212221759701816,1.0796295887860738,D,901,Incorrect
2,new_learn,4,434,D,49.82146898434037,30.267425863588056,2.4910734492170183,0.4754396136806097,A,4053,Incorrect
2,new_learn,4,435,C,74.7805606695324,73.80280426529856,3.7390280334766204,1.159291738470937,B,1224,Incorrect
2,new_learn,4,436,D,61.65836249044682,48.89750405986361,3.082918124522341,0.7680801976667229,D,1788,Correct
2,new_learn,4,437,A,5.719393900433918,43.90770478352505,0.2859696950216959,0.6897006139195586,A,853,Incorrect
2,new_learn,4,438,C,59.281894700609286,60.40769533260055,2.9640947350304647,0.9488818593859414,B,5534,Incorrect
2,new_learn,4,439,A,34.53466825278147,69.63640362565776,1.7267334126390737,1.0938460702639003,D,1374,Incorrect
2,new_learn,4,440,C,56.18009655974632,60.94955834889157,2.8090048279873154,0.9573934237421011,A,854,Incorrect
2,new_learn,4,441,D,32.51644920512281,38.72377805029177,1.6258224602561404,0.6082716832101915,D,5230,Incorrect
2,new_learn,4,442,C,59.0289810244726,62.07168190597346,2.95144905122363,0.9750196993588435,A,1702,Correct
2,new_learn,4,443,A,29.090491709374636,36.011879958118875,1.4545245854687316,0.5656732875919188,B,3867,Correct
2,new_learn,4,444,B,62.87291246979897,61.64191522376698,3.143645623489949,0.9682689401009558,A,3099,Incorrect
2,new_learn,4,445,B,49.418078704717075,79.20748476378262,2.4709039352358535,1.2441882612161246,D,1247,Correct
2,new_learn,4,446,D,54.15190087306412,22.171248695777585,2.707595043653206,0.3482651601178357,A,2245,Incorrect
2,new_learn,4,447,B,68.8312321564854,78.61685164947147,3.4415616078242697,1.2349106179516909,C,1431,Incorrect
2,new_learn,4,448,A,41.95485230516294,64.68946286653376,2.097742615258147,1.016139706530861,D,1125,Incorrect
2,new_learn,4,449,B,56.47343057263576,65.89284526705346,2.823671528631788,1.0350423930755204,B,4181,Incorrect
2,new_learn,4,450,D,59.36199402650477,23.857803875086404,2.9680997013252384,0.3747575069237877,A,3700,Incorrect
2,new_learn,4,451,B,67.62776985483526,73.64036739463509,3.3813884927417632,1.1567401860731947,A,3702,Incorrect
2,new_learn,4,452,C,71.0526840453111,29.654402805745015,3.552634202265555,0.46581027000560543,A,3517,Correct
2,new_learn,4,453,C,52.338749321295325,57.13257389583801,2.6169374660647664,0.8974363721592034,B,1494,Correct
2,new_learn,4,454,A,39.50556661031982,52.73170106236931,1.9752783305159909,0.8283076233441625,D,5289,Incorrect
2,new_learn,4,455,D,31.71223075124104,29.808596818246013,1.585611537562052,0.4682323438901088,D,1390,Incorrect
2,new_learn,4,456,D,24.175449020670044,25.592311420168052,1.2087724510335023,0.40200308772991056,A,5854,Correct
2,new_learn,4,457,B,31.319944309508205,63.826915251281065,1.5659972154754103,1.0025908402736146,D,1931,Correct
2,new_learn,4,458,A,27.099947529310697,50.61593057607894,1.3549973764655348,0.7950731782621029,D,1344,Correct
2,new_learn,4,459,D,56.639909668365135,13.483496682463292,2.8319954834182566,0.21179827061164513,C,2756,Incorrect
2,new_learn,4,460,C,84.49876173689586,45.103573826612205,4.2249380868447926,0.708485280921649,C,702,Correct
2,new_learn,4,461,D,53.31788487290388,37.95943829214089,2.665894243645194,0.5962654623649245,B,4173,Incorrect
2,new_learn,4,462,D,32.0686933513761,19.36905315288381,1.603434667568805,0.30424837546045,D,1108,Correct
2,new_learn,4,463,B,56.58214161300997,77.53906526058931,2.8291070806504983,1.2179807889444345,A,1709,Incorrect
2,new_learn,4,464,D,58.24306286989971,7.357911960092366,2.9121531434949857,0.11557781079793325,A,3462,Incorrect
2,new_learn,4,465,C,56.14978774814095,69.05244755629427,2.8074893874070477,1.0846733097762427,D,1559,Incorrect
2,new_learn,4,466,D,48.17783960379409,35.11739636941438,2.4088919801897046,0.5516227722367654,B,3476,Correct
2,new_learn,4,467,D,62.99479360903294,7.548974784539961,3.1497396804516473,0.11857901862622665,A,3692,Incorrect
2,new_learn,4,468,C,93.92471766765061,62.3030477222711,4.69623588338253,0.978653985102706,C,848,Incorrect
2,new_learn,4,469,D,60.63416287730812,17.188548349557703,3.031708143865406,0.2699970861042172,A,5066,Incorrect
2,new_learn,4,470,D,53.488806993310675,15.19646669340131,2.6744403496655336,0.2387055406225577,B,1432,Correct
2,new_learn,4,471,D,68.44508413178623,20.791495289034557,3.4222542065893116,0.3265920442858888,B,3191,Incorrect
2,new_learn,4,472,C,82.74236608128815,30.65733026239785,4.1371183040644075,0.4815642176551256,A,2970,Incorrect
2,new_learn,4,473,C,82.02408628240026,45.8988271590328,4.101204314120014,0.7209770910560257,C,647,Incorrect
2,new_learn,4,474,C,88.4863512237074,39.02866844392311,4.4243175611853705,0.6130608903141032,C,750,Incorrect
2,new_learn,4,475,B,65.7667544925234,74.86377648898423,3.2883377246261705,1.1759574511889057,B,1391,Incorrect
2,new_learn,4,476,C,78.34162821774177,49.416671350189155,3.917081410887089,0.7762352583930773,C,3468,Correct
2,new_learn,4,477,D,38.589300165859285,47.466365847766376,1.9294650082929643,0.7455999311997416,D,1509,Correct
2,new_learn,4,478,D,45.34599900624359,21.86877304850848,2.267299950312179,0.34351388376108355,D,956,Correct
2,new_learn,4,479,C,60.76261137545695,44.43956515868554,3.0381305687728473,0.6980550571562572,A,1915,Correct
2,new_learn,4,480,B,70.75471256854094,60.919267009815165,3.537735628427047,0.9569176085005519,B,2351,Incorrect
2,new_learn,4,481,D,54.09959006526053,14.507242523508237,2.7049795032630266,0.22787923267849466,D,924,Incorrect
2,new_learn,4,482,A,10.878711979701455,63.80382797676653,0.5439355989850728,1.0022281862135831,A,1175,Incorrect
2,new_learn,4,483,C,68.93506378167142,39.48679162330067,3.446753189083571,0.6202570723879618,C,1335,Correct
2,new_learn,4,484,D,24.315282477746386,20.919966107281958,1.2157641238873194,0.3286100591799223,D,1077,Incorrect
2,new_learn,4,485,A,15.048103441912627,44.518199101824266,0.7524051720956314,0.6992902362466943,B,1574,Correct
2,new_learn,4,486,B,27.72041402064582,62.68456201762079,1.386020701032291,0.9846467976402562,B,1104,Incorrect
2,new_learn,4,487,C,74.06070498665954,65.3730387022779,3.703035249332977,1.026877290649587,C,874,Correct
2,new_learn,4,488,A,29.009906769236746,52.64445680795947,1.4504953384618373,0.8269371938005533,B,1488,Incorrect
2,new_learn,4,489,D,74.83552235548062,27.984192948442786,3.741776117774031,0.4395746749173357,A,7534,Incorrect
2,new_learn,4,490,D,34.50840471972516,5.315785192806505,1.725420235986258,0.0835001585489116,D,1018,Incorrect
2,new_learn,4,491,A,22.572805546022906,27.30975800194472,1.1286402773011452,0.428980675551123,B,1007,Correct
2,new_learn,4,492,A,19.556850752900708,26.797016975101158,0.9778425376450355,0.4209265583354939,B,1151,Incorrect
2,new_learn,4,493,C,73.4588570148683,66.10904631032012,3.6729428507434148,1.0384384711216454,C,996,Incorrect
2,new_learn,4,494,B,44.87887875671244,74.2030719931327,2.243943937835622,1.165579129237101,D,1144,Incorrect
2,new_learn,4,495,B,68.35932684433183,78.63128001542235,3.4179663422165913,1.2351372581940638,C,1005,Incorrect
2,new_learn,4,496,D,69.11211404183338,41.11354353704904,3.4556057020916686,0.6458100316951869,A,2652,Incorrect
2,new_learn,4,497,D,51.111092685113135,5.044659325751983,2.5555546342556568,0.07924132338822834,D,1091,Incorrect
2,new_learn,4,498,B,47.110461836554975,64.1307372119554,2.3555230918277488,1.0073632644718833,B,3318,Correct
2,new_learn,4,499,B,43.50491858230966,78.68284215237739,2.1752459291154826,1.2359471943473705,A,2950,Incorrect
2,new_learn,4,500,C,61.77229829434857,51.00606948371107,3.0886149147174287,0.8012014658925862,C,1301,Correct
2,new_learn,4,501,D,49.29151332761421,35.69056487156707,2.4645756663807106,0.5606260820149253,B,1350,Incorrect
2,new_learn,4,502,D,53.805435858084216,34.72053984481897,2.690271792904211,0.5453889645257749,D,3309,Incorrect
2,new_learn,4,503,D,58.37677128487,2.145828221373854,2.9188385642435004,0.03370659088066876,D,1280,Correct
2,new_learn,4,504,B,71.80998671135029,61.75790018321456,3.5904993355675145,0.970090827583593,C,2021,Incorrect
2,new_learn,4,505,B,42.1638135686965,84.24785996237095,2.1081906784348248,1.3233622896922312,D,3996,Correct
2,new_learn,4,506,A,42.84830666166112,31.31829200297249,2.142415333083056,0.4919465803975917,B,1455,Incorrect
2,new_learn,4,507,A,46.783748163850305,59.67270558404588,2.3391874081925152,0.9373366674133258,D,1451,Incorrect
2,new_learn,4,508,B,25.400637408813143,65.74570267722456,1.270031870440657,1.0327310826793372,B,3116,Correct
2,new_learn,4,509,B,47.18109215721139,100.87271831547204,2.3590546078605694,1.584504954037598,A,3036,Incorrect
2,new_learn,4,510,B,27.257400338460315,81.49299523192033,1.3628700169230157,1.280088975698145,B,1414,Correct
2,new_learn,4,511,C,92.45043632242613,39.12494225010833,4.622521816121306,0.6145731557253262,C,1269,Incorrect
2,new_learn,4,512,A,48.44325432484015,42.364141108740256,2.4221627162420076,0.6654543724142988,A,2414,Correct
2,new_learn,4,513,A,49.60421099237138,43.286007572500864,2.480210549618569,0.6799350169650044,A,887,Correct
2,new_learn,4,514,C,87.43341409193744,56.7416665839949,4.3716707045968715,0.8912960144635992,C,878,Correct
2,new_learn,4,515,A,4.397152706331749,57.25352652400494,0.21985763531658745,0.8993362915996116,A,1573,Incorrect
2,new_learn,4,516,A,43.624840132545756,36.3289966181016,2.1812420066272877,0.5706545444385821,B,5710,Correct
2,new_learn,4,517,A,38.081004057223254,51.5747023106592,1.9040502028611628,0.8101335294512373,D,1629,Incorrect
2,new_learn,4,518,B,66.25439003283314,79.58638605349705,3.3127195016416575,1.2501400287571374,C,853,Incorrect
2,new_learn,4,519,A,24.643899803665356,72.32347394825752,1.2321949901832678,1.136054472189693,D,1630,Incorrect
2,new_learn,4,520,C,77.40894838278724,55.03491341382208,3.870447419139362,0.8644863983590692,C,984,Incorrect
2,new_learn,4,521,A,3.7745310151544693,63.09347475915868,0.18872655075772346,0.9910699839641298,B,1850,Correct
2,new_learn,4,522,B,44.087344496096534,83.68190210010681,2.2043672248048267,1.3144722443805792,A,3248,Incorrect
2,new_learn,4,523,B,52.334483411306486,97.01030918289344,2.616724170565324,1.5238343732572623,A,8054,Incorrect
2,new_learn,4,524,C,83.83774068621119,37.383269986462565,4.191887034310559,0.5872150317831729,C,893,Incorrect
2,new_learn,4,525,C,96.20281402372254,60.2770583062134,4.8101407011861275,0.9468298177740182,C,757,Correct
2,new_learn,4,526,D,31.702100168226316,25.421398115978416,1.5851050084113156,0.399318387825696,A,3333,Correct
2,new_learn,4,527,C,98.44398750022931,54.674144447566434,4.922199375011465,0.8588194526889095,C,1863,Correct
2,new_learn,4,528,C,79.9963407191915,29.26589736956812,3.9998170359595746,0.4597076408847403,A,2495,Incorrect
2,new_learn,4,529,C,79.24479562541481,55.886515680773826,3.9622397812707404,0.8778633354872493,C,914,Incorrect
2,new_learn,4,530,A,-0.4208609373125327,51.253946078902054,-0.021043046865626636,0.8050951023448304,A,1656,Incorrect
2,new_learn,4,531,C,81.3319676014934,27.1390880262052,4.0665983800746694,0.4262997978412649,A,4437,Incorrect
2,new_learn,4,532,A,41.83842662159876,54.63935736767593,2.091921331079938,0.8582730185157901,A,5574,Correct
2,new_learn,4,533,C,68.53396300858424,26.93813313306185,3.4266981504292118,0.42314320576125447,C,2549,Incorrect
2,new_learn,4,534,B,62.60841236476727,72.51918959251557,3.130420618238363,1.1391287663406615,A,4612,Incorrect
2,new_learn,4,535,B,47.12358567695014,74.67733691415827,2.3561792838475073,1.1730288651958474,B,1061,Incorrect
2,new_learn,4,536,C,100.41939892909501,55.123337434543664,5.02096994645475,0.8658753596285681,C,3551,Correct
2,new_learn,4,537,D,41.063092307844116,18.268721140392685,2.053154615392206,0.28696440062569106,A,3093,Incorrect
2,new_learn,4,538,C,93.18656942884245,54.5358142205334,4.659328471442122,0.8566465665638276,C,1047,Correct
2,new_learn,4,539,D,39.397625274695415,27.83440196371321,1.969881263734771,0.43722176363133364,A,2862,Incorrect
2,new_learn,4,540,C,87.20022615555948,39.70496790180162,4.360011307777974,0.6236841773565927,C,4386,Incorrect
2,new_learn,4,541,B,55.77719553685796,59.140819133800846,2.788859776842898,0.9289818145901572,B,1872,Incorrect
2,new_learn,4,542,D,65.48432740990611,33.51625637719668,3.2742163704953056,0.5264721240521658,B,1670,Incorrect
2,new_learn,4,543,D,68.16257021431099,9.105432881444056,3.40812851071555,0.14302780524049796,D,1389,Correct
2,new_learn,4,544,A,15.058673530495316,29.638429427262867,0.7529336765247657,0.4655593607631428,A,4885,Incorrect
2,new_learn,4,545,B,57.20843959442744,97.70289982547057,2.860421979721372,1.534713561630589,D,3671,Incorrect
2,new_learn,4,546,C,81.53395294322146,44.86093343760082,4.076697647161073,0.7046738946037372,B,883,Incorrect
2,new_learn,4,547,A,32.35148352388757,37.52446576048672,1.6175741761943785,0.5894329298151341,D,1248,Incorrect
2,new_learn,4,548,B,73.13140574053467,86.29666200676851,3.6565702870267334,1.355544796948927,A,5580,Incorrect
2,new_learn,4,549,A,48.265906625659525,54.35515723954454,2.413295331282976,0.853808813342356,A,1871,Incorrect
2,new_learn,4,550,B,63.399273861842175,83.55590666130422,3.1699636930921087,1.312493112655939,A,2876,Incorrect
2,new_learn,4,551,A,47.078922550955205,56.810797345298084,2.3539461275477604,0.8923819179228349,D,950,Incorrect
2,new_learn,4,552,D,31.736263364407787,26.240535003437127,1.5868131682203892,0.4121853599653195,B,1576,Incorrect
2,new_learn,4,553,B,67.7001913928388,87.73442415861625,3.38500956964194,1.3781291120181984,C,1295,Incorrect
2,new_learn,4,554,C,69.22506521037037,40.66482736946807,3.4612532605185184,0.6387616146170902,A,1100,Incorrect
2,new_learn,4,555,A,11.468623001959005,54.073906798333965,0.5734311500979502,0.8493909417427258,D,5878,Incorrect
2,new_learn,4,556,C,87.79740492309274,36.675621068219016,4.389870246154637,0.5760993085687994,C,918,Incorrect
2,new_learn,4,557,C,77.08511202367907,29.66961962899082,3.8542556011839535,0.46604929530620537,C,1605,Incorrect
2,new_learn,4,558,C,58.679996386676656,48.92384813710092,2.933999819333833,0.7684940094642946,A,1960,Incorrect
2,new_learn,4,559,B,39.13422977478927,90.14409851237104,1.9567114887394634,1.4159801882546974,B,1965,Correct
2,new_learn,4,560,D,72.73183200909966,39.24883397059956,3.636591600454983,0.6165192423200054,A,6867,Incorrect
2,new_learn,4,561,C,70.48174535231605,47.03884339155734,3.524087267615803,0.7388844241613868,B,4822,Incorrect
2,new_learn,4,562,B,68.19938736381766,58.646900804929984,3.4099693681908834,0.9212233636228867,D,1333,Incorrect
2,new_learn,4,563,C,77.22891422221352,25.233986885195076,3.861445711110676,0.3963745390965502,D,2662,Correct
2,new_learn,4,564,D,58.88062061459229,27.4698425059773,2.9440310307296147,0.4314952770602346,D,1069,Incorrect
2,new_learn,4,565,B,50.674058059682025,59.612007272714806,2.533702902984101,0.9363832205685109,B,1743,Incorrect
2,new_learn,4,566,A,16.781785022381648,36.80350160137696,0.8390892511190825,0.5781080512863301,B,1069,Incorrect
2,new_learn,4,567,B,54.73411362452629,69.47042530067152,2.736705681226314,1.0912388888317406,C,2805,Correct
2,new_learn,4,568,C,82.29934087382841,53.125308748994016,4.114967043691421,0.8344903984276459,C,1341,Correct
2,new_learn,4,569,A,42.47386722036277,30.459786256750757,2.1236933610181383,0.4784612036706176,A,5781,Incorrect
2,new_learn,4,570,B,26.597921958666358,75.958570740277,1.3298960979333179,1.1931544390741742,B,3572,Incorrect
2,new_learn,4,571,D,58.28445384598885,22.01552564613703,2.9142226922994428,0.3458190681741089,D,1247,Incorrect
2,new_learn,4,572,D,31.307551996394906,9.226914548071955,1.5653775998197454,0.1449360347976182,D,2653,Correct
2,new_learn,4,573,B,47.26416242836508,51.698655292377126,2.363208121418254,0.8120805783350153,D,3157,Correct
2,new_learn,4,574,C,67.31064024069069,73.65945981299333,3.3655320120345347,1.1570400890794623,C,1037,Incorrect
2,new_learn,4,575,C,67.46360407569489,64.35088593910922,3.3731802037847443,1.0108213525915013,C,639,Correct
2,new_learn,4,576,D,46.33559450945981,-0.4757861150771667,2.3167797254729905,-0.0074736308190322745,D,2221,Correct
2,new_learn,4,577,D,32.4540464404172,15.331879255997574,1.6227023220208598,0.2408325961818386,D,3871,Incorrect
2,new_learn,4,578,D,52.72244961607975,42.55204704909954,2.636122480803987,0.6684059920232919,A,2917,Incorrect
2,new_learn,4,579,A,24.744774919877774,52.41473524372451,1.2372387459938887,0.8233287359076946,D,2447,Incorrect
2,new_learn,4,580,C,90.00299413582434,39.958201445764416,4.500149706791217,0.6276619605633728,C,741,Incorrect
2,new_learn,4,581,C,83.7026538886946,64.10565580377805,4.1851326944347305,1.0069692866335251,C,710,Correct
2,new_learn,4,582,A,44.428683620708775,65.36729236615261,2.2214341810354385,1.0267870274128061,A,3085,Correct
2,new_learn,4,583,C,95.69056927184194,55.11106265208582,4.784528463592097,0.8656825477965981,C,909,Correct
2,new_learn,4,584,A,45.23671018492837,66.77428391773893,2.2618355092464184,1.0488879990234385,D,2823,Incorrect
2,new_learn,4,585,D,29.886072733159402,23.067181339113873,1.4943036366579703,0.3623384371699186,D,1679,Incorrect
2,new_learn,4,586,A,22.974414790461147,41.01370030653921,1.1487207395230572,0.6442416978977852,A,1212,Incorrect
2,new_learn,4,587,C,95.21454627132195,57.67351707339565,4.760727313566098,0.9059334877223264,C,790,Incorrect
2,new_learn,4,588,D,55.47246895724512,1.0046755444927555,2.773623447862256,0.01578140654909883,B,992,Incorrect
2,new_learn,4,589,B,36.31889199053769,83.7143440194341,1.8159445995268846,1.314981840857714,B,492,Incorrect
2,new_learn,4,590,D,49.26122287195183,50.43332720992377,2.4630611435975913,0.7922048512939335,B,699,Incorrect
2,new_learn,4,591,D,37.09743400231336,16.349850804472016,1.8548717001156683,0.2568228558730923,B,1208,Correct
2,new_learn,4,592,D,62.29723544469606,10.826091420828787,3.114861772234803,0.17005584637383603,C,1964,Incorrect
2,new_learn,4,593,D,74.31769956075502,30.41439243462152,3.715884978037751,0.4777481591800198,C,973,Incorrect
2,new_learn,4,594,D,30.902947843625117,24.965479812472807,1.5451473921812557,0.3921568398610443,B,1958,Incorrect
2,new_learn,4,595,A,21.846462636988363,43.67482157230895,1.0923231318494182,0.6860424929920541,A,815,Correct
2,new_learn,4,596,B,38.03140003063991,92.11425969688028,1.9015700015319954,1.446927407772907,B,1862,Incorrect
2,new_learn,4,597,D,51.08223712248642,20.26550470910305,2.554111856124321,0.3183298035770375,D,855,Incorrect
2,new_learn,4,598,C,53.25612457963571,34.338408456007265,2.6628062289817853,0.5393864587067903,D,2324,Incorrect
2,new_learn,4,599,D,71.0304837314278,36.91982004500663,3.55152418657139,0.5799351771262501,C,1787,Incorrect
2,new_learn,4,600,A,29.82275352573448,41.89780703297176,1.4911376762867241,0.6581292138815343,A,3591,Correct
2,new_learn,4,601,D,99.03991459710076,60.000610755159975,4.951995729855038,0.9424873897965566,A,28081,Incorrect
2,new_learn,4,602,B,35.05519658624897,63.49681120693468,1.7527598293124484,0.9974055780704202,D,1669,Incorrect
2,new_learn,4,603,B,28.4935371289009,29.96205875223857,1.4246768564450452,0.47064291831229227,A,670,Incorrect
2,new_learn,4,604,A,51.88119854781339,34.53237077060896,2.5940599273906697,0.5424332116199201,D,1258,Incorrect
2,new_learn,4,605,C,39.94409433895227,87.89988939672106,1.9972047169476133,1.3807282339004714,D,929,Incorrect
2,new_learn,4,606,B,46.6213409470341,52.96912051097543,2.331067047351705,0.8320369993219642,A,1596,Incorrect
2,new_learn,4,607,C,46.717685970482705,99.48148264644543,2.3358842985241353,1.562651475251467,B,510,Incorrect
2,new_learn,4,608,B,29.516013332812996,72.11854882095244,1.4758006666406498,1.1328355158173051,B,940,Correct
2,new_learn,4,609,C,43.57491349229259,76.21507901332598,2.178745674614629,1.1971836616051528,D,1630,Incorrect
2,new_learn,4,610,B,44.45862613848598,49.62876884656942,2.2229313069242993,0.7795668780754424,C,951,Incorrect
2,new_learn,4,611,B,16.47265554625102,56.59101107280439,0.8236327773125509,0.8889295232277047,A,2901,Incorrect
2,new_learn,4,612,C,43.23553216903997,59.01084156437405,2.1617766084519987,0.9269401317039435,B,1428,Incorrect
2,new_learn,4,613,D,69.58204056565602,37.12531664097477,3.479102028282801,0.5831631101074062,C,1021,Incorrect
2,new_learn,4,614,B,37.56509108748902,44.44405308281257,1.878254554374451,0.6981255533035939,B,1789,Correct
2,new_learn,4,615,A,40.73645754795922,29.01380399592193,2.036822877397961,0.4557477674314126,B,2735,Incorrect
2,new_learn,4,616,D,82.09779454173686,48.733484447482425,4.104889727086843,0.7655037836202161,C,934,Incorrect
2,new_learn,4,617,C,46.67431651433843,49.71796642302991,2.3337158257169217,0.7809679903300738,B,2619,Incorrect
2,new_learn,4,618,A,39.5681237801784,16.5144033411047,1.9784061890089197,0.2594076410741663,B,3860,Incorrect
2,new_learn,4,619,A,38.736248227484495,14.009953812622244,1.9368124113742249,0.2200678398743318,A,807,Correct
2,new_learn,4,620,C,40.2908038370227,71.90615265157187,2.014540191851135,1.1294992045904224,A,1917,Incorrect
2,new_learn,4,621,A,63.40601781909343,28.005333318989848,3.1703008909546715,0.43990674708135985,D,1406,Incorrect
2,new_learn,4,622,D,82.32382905061563,57.93386755943968,4.1161914525307814,0.9100230635938986,C,646,Incorrect
2,new_learn,4,623,A,62.94634813943439,44.29463515391969,3.1473174069717196,0.6957785019649715,D,6221,Incorrect
2,new_learn,4,624,C,40.26418681326164,67.96958894037508,2.013209340663082,1.067663806413002,B,1349,Incorrect
2,new_learn,4,625,B,22.097553185272073,53.011779558528566,1.1048776592636036,0.8327070860739746,A,2379,Incorrect
2,new_learn,4,626,A,44.925586093238365,33.87461306426177,2.2462793046619183,0.532101177729408,B,712,Incorrect
2,new_learn,4,627,A,53.00798844421358,50.50170158206146,2.650399422210679,0.7932788734199415,C,579,Incorrect
2,new_learn,4,628,D,93.21129975711717,46.03584931756266,4.660564987855858,0.7231294300891076,C,2309,Incorrect
2,new_learn,4,629,A,30.654573629566045,12.161783783896432,1.5327286814783023,0.19103685295018252,D,2800,Incorrect
2,new_learn,4,630,A,57.26004137802542,1.634001258913159,2.863002068901271,0.02566683175479027,A,1916,Correct
2,new_learn,4,631,C,57.7285507493005,91.71046049175476,2.8864275374650252,1.4405845446911687,A,782,Incorrect
2,new_learn,4,632,C,67.35171163716137,71.15817995869921,3.3675855818580684,1.1177500770053495,B,6187,Incorrect
2,new_learn,4,633,D,49.458982129294995,55.458743413970694,2.4729491064647497,0.8711439044332582,C,2157,Incorrect
2,new_learn,4,634,A,29.3975504738573,11.58118963252541,1.4698775236928652,0.1819169013468605,D,711,Incorrect
2,new_learn,4,635,A,31.510468958047312,40.28461961154914,1.5755234479023656,0.6327893251215103,A,1619,Correct
2,new_learn,4,636,B,7.578538338311358,62.47364066407763,0.3789269169155679,0.9813336527663743,B,2277,Correct
2,new_learn,4,637,D,52.275767589615164,36.16153981849473,2.6137883794807584,0.5680241391813892,A,2173,Incorrect
2,new_learn,4,638,B,16.61214718254249,30.130441366958845,0.8306073591271245,0.47328786623927954,A,1198,Incorrect
2,new_learn,4,639,D,93.83910362692524,65.12203475978183,4.691955181346262,1.0229345299407486,C,923,Incorrect
2,new_learn,4,640,C,27.87170446407847,76.73487064773117,1.3935852232039236,1.2053485295053765,D,2032,Incorrect
2,new_learn,4,641,B,19.85654965964876,68.37395492185809,0.9928274829824381,1.0740155723969453,A,577,Incorrect
2,new_learn,4,642,A,63.61706557736001,31.0464449784964,3.180853278868,0.48767641732262007,B,999,Incorrect
2,new_learn,4,643,C,58.83991875952204,55.33257464075963,2.941995937976102,0.8691620499780968,D,4741,Incorrect
2,new_learn,4,644,B,37.36504580140686,36.91789449649707,1.8682522900703429,0.5799049306809911,A,1367,Incorrect
2,new_learn,4,645,B,32.232591869277385,29.60789610714781,1.6116295934638691,0.465079744492327,B,780,Correct
2,new_learn,4,646,C,66.40989855617892,77.59891316747819,3.3204949278089457,1.2189208776675087,C,1836,Correct
2,new_learn,4,647,A,70.46266609634782,23.554182132029037,3.5231333048173905,0.36998822773649204,C,1381,Incorrect
2,new_learn,4,648,A,45.30001373159884,24.82665791676965,2.265000686579942,0.3899762306225521,A,2518,Correct
2,new_learn,4,649,A,32.65163836393408,39.134694899463035,1.632581918196704,0.6147263499831551,B,878,Incorrect
2,new_learn,4,650,A,43.28623514149047,8.187420439429935,2.1643117570745236,0.12860769952182002,A,1763,Correct
2,new_learn,4,651,B,46.134815861775735,65.55704307765738,2.3067407930887867,1.0297676246191902,A,929,Incorrect
2,new_learn,4,652,C,41.06387671576421,99.68656299626845,2.0531938357882105,1.5658728698534654,D,1724,Incorrect
2,new_learn,4,653,C,44.6379382296477,72.18273665061304,2.2318969114823854,1.1338437758878632,A,829,Incorrect
2,new_learn,4,654,B,40.495338162518564,40.45821491804712,2.0247669081259283,0.6355161538194689,A,1813,Incorrect
2,new_learn,4,655,D,73.826038261833,64.27329092139139,3.69130191309165,1.0096024929034138,C,1023,Incorrect
2,new_learn,4,656,C,52.87180871959625,87.42691353466661,2.643590435979813,1.3732987464326933,A,4626,Incorrect
2,new_learn,4,657,D,83.53133161869383,50.74135545893667,4.176566580934691,0.7970433477149189,B,1534,Incorrect
2,new_learn,4,658,B,34.11009184582454,60.35057976998565,1.705504592291227,0.9479846902263586,A,3880,Incorrect
2,new_learn,4,659,B,6.624685377190275,57.92445064357928,0.33123426885951374,0.9098751430254661,D,1308,Incorrect
2,new_learn,4,660,D,60.90127623765329,42.83478947485084,3.0450638118826645,0.672847299661284,B,878,Incorrect
2,new_learn,4,661,B,28.01580405840803,51.3137400323245,1.4007902029204016,0.8060343435688355,C,717,Incorrect
2,new_learn,4,662,A,42.924095069912184,41.28470373691506,2.1462047534956095,0.6484986098276172,D,895,Incorrect
2,new_learn,4,663,A,65.43298196896288,12.220007924766259,3.2716490984481434,0.19195143561627365,A,1221,Correct
2,new_learn,4,664,A,72.08121131840295,31.77878722608729,3.6040605659201477,0.4991800224473449,A,1358,Correct
2,new_learn,4,665,C,38.13541789186736,54.09597101584137,1.906770894593368,0.8497375256608682,B,1599,Incorrect
2,new_learn,4,666,C,69.04543984477966,66.41874774151941,3.452271992238983,1.0433032498269552,C,1283,Correct
2,new_learn,4,667,B,44.331932698881594,67.91503988302344,2.2165966349440795,1.0668069518238212,B,5495,Correct
2,new_learn,4,668,C,45.86337490784482,81.34559936633465,2.293168745392241,1.2777736868556775,D,2251,Incorrect
2,new_learn,4,669,A,43.1923840355426,21.790048281213256,2.1596192017771303,0.34227727800813235,A,1287,Correct
2,new_learn,4,670,A,58.07853389182224,43.902653270698416,2.903926694591112,0.6896212649416302,D,4100,Incorrect
2,new_learn,4,671,A,63.42257790967852,28.6756851362817,3.171128895483926,0.45043660880398306,D,3469,Incorrect
2,new_learn,4,672,C,45.19110643130493,82.44838559183171,2.2595553215652466,1.2950962123781853,A,2920,Incorrect
2,new_learn,4,673,C,27.997568127951972,61.89973025825049,1.3998784063975986,0.9723186891925479,D,11428,Incorrect
2,new_learn,4,674,D,56.43902032842149,41.54534903710841,2.821951016421075,0.6525928166290178,A,1305,Incorrect
2,new_learn,4,675,C,37.05094843364566,52.37288899913142,1.8525474216822828,0.8226714166347249,B,945,Incorrect
2,new_learn,4,676,C,46.82359187613613,67.22904423091471,2.3411795938068063,1.0560313573185245,D,5496,Incorrect
2,new_learn,4,677,A,39.91019691475984,26.632520081365215,1.9955098457379918,0.418342647170998,A,2532,Correct
2,new_learn,4,678,B,13.126951716574876,72.83627736829162,0.6563475858287439,1.1441095694752672,A,1200,Incorrect
2,new_learn,4,679,D,86.03278780232257,35.336840457286854,4.3016393901161285,0.5550697919084349,C,1996,Incorrect
2,new_learn,4,680,A,50.20747577038294,21.878177238149448,2.510373788519147,0.34366160442652866,A,2077,Correct
2,new_learn,4,681,D,89.98593694174414,37.44253515777709,4.499296847087208,0.5881459669172503,D,3063,Correct
2,new_learn,4,682,C,40.42427737292854,51.076303642841935,2.021213868646427,0.8023047014843692,A,1438,Incorrect
2,new_learn,4,683,A,53.67675134579295,31.84755928865083,2.6838375672896473,0.5002602914799541,B,2820,Incorrect
2,new_learn,4,684,C,43.21406629435799,72.33167417297696,2.1607033147178996,1.136183281018375,A,2784,Incorrect
2,new_learn,4,685,D,73.2773295675796,26.72073738480502,3.66386647837898,0.41972836133302793,D,978,Correct
2,new_learn,4,686,C,53.04994478219975,60.35358886163499,2.6524972391099872,0.9480319569274565,A,1238,Incorrect
2,new_learn,4,687,A,59.20472058467429,23.608622488008066,2.9602360292337146,0.3708433748485046,D,2193,Incorrect
2,new_learn,4,688,A,65.11972267248602,32.247183021451995,3.255986133624301,0.5065375663957955,C,1163,Incorrect
2,new_learn,4,689,C,65.29587904954268,90.73354558792802,3.264793952477134,1.4252392012659465,A,7887,Incorrect
2,new_learn,4,690,D,95.43584251842483,59.461690118901984,4.771792125921241,0.9340220442378762,C,892,Incorrect
2,new_learn,4,691,D,73.78710090929847,72.52822970005366,3.6893550454649238,1.139270768017808,C,968,Incorrect
2,new_learn,4,692,D,92.36013585476798,64.21398622399299,4.618006792738399,1.0086709368950626,C,925,Incorrect
2,new_learn,4,693,A,39.53947864550053,22.03847035518653,1.9769739322750266,0.3461794828210522,A,1533,Correct
2,new_learn,4,694,A,30.2623187381216,7.981911240945706,1.5131159369060798,0.1253795685808041,A,2374,Correct
2,new_learn,4,695,B,14.794181567734327,58.384545422103194,0.7397090783867164,0.9171022949062949,A,1302,Incorrect
2,new_learn,4,696,C,47.64656133709429,66.73307914213652,2.3823280668547144,1.0482407559218117,B,6164,Incorrect
2,new_learn,4,697,A,66.49495343136991,32.71511981635591,3.324747671568496,0.5138879003818679,D,2801,Incorrect
2,new_learn,4,698,C,56.20771543569421,61.55037978767021,2.810385771784711,0.966831104833032,A,1619,Incorrect
2,new_learn,4,699,D,89.86134273379396,42.1136084547793,4.493067136689698,0.6615190146884582,C,1071,Incorrect
2,new_learn,4,700,D,95.8312444564063,44.990482116903024,4.791562222820315,0.7067088404996276,D,1781,Correct
2,new_learn,4,701,C,65.93847044408433,67.43999310908808,3.2969235222042164,1.059344934548287,A,1885,Incorrect
2,new_learn,4,702,A,59.43656576684136,23.315841474338697,2.9718282883420684,0.36624438144023325,D,1046,Incorrect
2,new_learn,4,703,C,48.5961997398756,75.21996253869246,2.42980998699378,1.1815524085742783,A,4662,Incorrect
2,new_learn,4,704,A,61.43199949624763,31.885005165750986,3.071599974812381,0.5008484899419794,B,4133,Incorrect
2,new_learn,4,705,D,90.7659912384607,65.06826391983296,4.538299561923035,1.0220898995619452,C,2212,Incorrect
2,new_learn,4,706,C,43.337872654927466,88.59103249230903,2.1668936327463735,1.3915846842588635,B,4032,Incorrect
2,new_learn,4,707,C,66.54870060115582,54.400809743192156,3.327435030057791,0.8545259211927425,A,2923,Incorrect
2,new_learn,4,708,B,18.184901739349634,28.133706004023985,0.9092450869674817,0.441923220502484,B,4213,Correct
2,new_learn,4,709,B,47.68489894492754,62.693579046976396,2.384244947246377,0.9847884368061601,A,8678,Incorrect
2,new_learn,4,710,C,28.709226861474516,63.062356293226415,1.4354613430737257,0.9905811762443107,D,941,Incorrect
2,new_learn,4,711,A,73.38196037919742,32.84953462638413,3.6690980189598714,0.5159992832804595,D,1558,Incorrect
2,new_learn,4,712,D,65.8997714743818,60.072785436326654,3.2949885737190896,0.9436211070371988,A,1619,Incorrect
2,new_learn,4,713,B,2.42228357245925,37.93996085179764,0.1211141786229625,0.5959595114474592,B,4526,Correct
2,new_learn,4,714,D,80.71699095055547,29.439015995323803,4.035849547527773,0.4624269818991084,D,4078,Correct
2,new_learn,4,715,B,8.117626855013047,47.74199920096473,0.4058813427506523,0.7499295697872028,D,3215,Incorrect
2,new_learn,4,716,A,51.502499749790644,44.747073616981865,2.5751249874895326,0.7028853887237594,A,1403,Correct
2,new_learn,4,717,D,72.36702338138345,51.30516402553533,3.618351169069172,0.8058996319692058,D,1462,Correct
2,new_learn,4,718,C,67.33862578649382,90.91750530560421,3.366931289324691,1.4281288337539861,D,5851,Incorrect
2,new_learn,4,719,D,90.02679622872296,48.14822562642334,4.501339811436148,0.7563105595567768,D,2102,Correct
2,new_learn,4,720,A,39.95079113882316,9.298076385797767,1.997539556941158,0.14605384233069502,A,2373,Correct
2,new_learn,4,721,A,51.50465762484302,46.72128650997673,2.5752328812421514,0.7338962523300339,B,2951,Incorrect
2,new_learn,4,722,B,5.730855007049804,64.96216167320739,0.2865427503524902,1.0204232493693037,B,4206,Correct
2,new_learn,4,723,C,25.23352705240945,78.88399387602605,1.2616763526204724,1.2391068782337284,B,3055,Incorrect
2,new_learn,4,724,D,75.66610473519692,72.41676504435297,3.7833052367598463,1.1375198853003872,D,1084,Correct
2,new_learn,4,725,D,54.0185240141603,46.69215421768167,2.700926200708015,0.7334386433527521,A,1734,Incorrect
2,new_learn,4,726,B,41.99423705959979,58.97246993770833,2.0997118529799894,0.9263373916017471,B,1339,Correct
2,new_learn,4,727,C,44.01618357044043,70.27134767886139,2.2008091785220216,1.1038197481288254,B,1360,Incorrect
2,new_learn,4,728,B,28.04122922594558,58.411998569090535,1.402061461297279,0.9175335279307617,B,773,Correct
2,new_learn,4,729,B,16.849885508423615,71.72531726806939,0.8424942754211807,1.1266586490288197,A,5019,Incorrect
2,new_learn,4,730,D,86.77755449873155,59.63695876848235,4.3388777249365775,0.9367751577475076,C,3393,Incorrect
2,new_learn,4,731,D,71.0460548178744,50.26928205714205,3.5523027408937202,0.7896280360597533,D,669,Correct
2,new_learn,4,732,B,45.089238699576086,33.945675496892605,2.254461934978804,0.5332174238109043,A,1587,Incorrect
2,new_learn,4,733,D,76.06421903406894,50.19920328493228,3.803210951703447,0.7885272412800193,D,806,Correct
2,new_learn,4,734,A,61.37512675208112,31.707210580615328,3.068756337604056,0.49805569912942843,D,3869,Incorrect
2,new_learn,4,735,D,99.93849224832634,40.624512092386354,4.996924612416317,0.6381283437255535,C,1763,Incorrect
2,new_learn,4,736,B,33.97660360728363,46.321007887769404,1.6988301803641814,0.7276086904354562,B,4005,Correct
2,new_learn,4,737,D,64.42776780721829,63.992231373623554,3.2213883903609144,1.00518761985097,C,1471,Incorrect
2,new_learn,4,738,C,29.20987027322881,61.809060932960605,1.4604935136614403,0.9708944587613647,A,1637,Incorrect
2,new_learn,4,739,B,43.33660013358963,54.08396418942691,2.1668300066794814,0.8495489228725851,B,1214,Correct
2,new_learn,4,740,A,32.0283789233996,12.902476665646283,1.60141894616998,0.2026716295295405,B,2517,Incorrect
2,new_learn,4,741,B,11.42553131188421,27.6263179184602,0.5712765655942106,0.43395318709185315,B,1837,Correct
2,new_learn,4,742,D,98.11186462159033,48.15430145546456,4.905593231079516,0.7564059984561788,D,2007,Correct
2,new_learn,4,743,A,24.510692940781215,17.649209586856788,1.2255346470390607,0.27723313589867915,A,1100,Correct
2,new_learn,4,744,C,57.80977974332831,75.55860143871209,2.8904889871664157,1.1868717359768852,D,1509,Incorrect
2,new_learn,4,745,D,85.78005149278164,38.82286822044853,4.289002574639082,0.6098281879632287,C,1407,Incorrect
2,new_learn,4,746,B,17.420593858361716,41.85225587661572,0.8710296929180857,0.6574136979906811,B,996,Correct
2,new_learn,4,747,D,82.11384267503631,24.638300723431932,4.105692133751815,0.3870175227483492,D,2879,Correct
2,new_learn,4,748,D,78.44929004723046,34.28186110118875,3.922464502361523,0.5384982149344014,D,1285,Correct
2,new_learn,4,749,A,68.02491687230068,18.43369587969707,3.4012458436150337,0.28955581777082373,A,1292,Correct
2,new_learn,4,750,A,57.225968355706286,6.642081777882673,2.8612984177853145,0.1043335765896942,A,1710,Correct
2,new_learn,4,751,B,2.4044032472217225,59.3330418271532,0.12022016236108612,0.932001241596602,B,3718,Correct
2,new_learn,4,752,D,84.47038288843922,57.58295850971781,4.22351914442196,0.9045109971304767,D,1190,Correct
2,new_learn,4,753,C,33.14586171966718,71.56684820124028,1.657293085983359,1.1241694227479617,A,1030,Incorrect
2,new_learn,4,754,D,60.537287133456616,34.136404836970954,3.026864356672831,0.5362133932789751,D,1150,Correct
2,new_learn,4,755,C,56.932823131122404,81.11641434191637,2.84664115655612,1.2741736569105508,D,2588,Incorrect
2,new_learn,4,756,D,69.36533063733394,26.500499542538662,3.468266531866697,0.41626887339649565,C,2102,Incorrect
2,new_learn,4,757,B,25.066275183818988,23.875407647922955,1.2533137591909493,0.3750340263408816,B,1268,Correct
2,new_learn,4,758,B,7.604428890564343,40.66619186356907,0.38022144452821716,0.638783048040308,B,941,Correct
2,new_learn,4,759,B,36.99693033663616,68.51227016199796,1.849846516831808,1.07618822310846,A,2596,Incorrect
2,new_learn,4,760,B,25.76637896559044,54.71847926365227,1.2883189482795219,0.8595158623514769,B,1711,Correct
2,new_learn,4,761,D,67.88803545826649,26.678801065253904,3.3944017729133242,0.41906962716592605,C,1114,Incorrect
2,new_learn,4,762,B,10.31319726199886,44.11106655578573,0.515659863099943,0.6928950131683345,B,4702,Correct
2,new_learn,4,763,B,27.04944182258436,63.64982366250152,1.352472091129218,0.9998090921020029,A,2869,Incorrect
2,new_learn,4,764,B,21.21553292222863,74.79697130254456,1.0607766461114314,1.174908077774203,B,1190,Correct
2,new_learn,4,765,B,30.586580508007145,73.6512279626269,1.5293290254003573,1.156910783476279,B,983,Correct
2,new_learn,4,766,A,36.573910465495814,43.602201043907115,1.8286955232747908,0.684901772399419,B,766,Incorrect
2,new_learn,4,767,A,57.18310254797168,10.471575747714184,2.859155127398584,0.16448712720263964,D,2119,Incorrect
2,new_learn,4,768,C,52.334451128109116,52.27315061882368,2.6167225564054557,0.8211047298204461,D,4300,Incorrect
2,new_learn,4,769,D,101.13518670033866,51.64513469048289,5.056759335016933,0.8112398786863821,C,1228,Incorrect
2,new_learn,4,770,C,58.60305715325431,82.57709642041276,2.9301528576627156,1.2971179973457236,A,1335,Incorrect
2,new_learn,4,771,B,13.659213284444451,44.58259274755621,0.6829606642222226,0.700301729268541,B,1293,Correct
2,new_learn,4,772,C,69.81814186578524,79.85120582020761,3.490907093289262,1.2542998079252539,D,6790,Incorrect
2,new_learn,4,773,C,46.25166254522983,99.96378740548965,2.3125831272614916,1.570227500690491,A,1343,Incorrect
2,new_learn,4,774,C,34.50888385989084,93.35421257479507,1.7254441929945417,1.4664045420331806,B,1597,Incorrect
2,new_learn,4,775,B,49.23981921385356,46.95327255292268,2.461990960692678,0.7375402805713059,A,5245,Incorrect
2,new_learn,4,776,C,66.1876472796443,60.35887637849582,3.309382363982215,0.948115013048085,D,2030,Incorrect
2,new_learn,4,777,B,42.60169656176721,30.52548038536873,2.1300848280883606,0.47949312462986865,B,2564,Correct
2,new_learn,4,778,B,28.48013177086255,49.41701390553533,1.4240065885431274,0.7762406392398721,B,688,Correct
2,new_learn,4,779,D,80.86655341350449,70.47607473495871,4.043327670675224,1.1070355932059577,A,3868,Incorrect
2,new_learn,4,780,A,63.63391975777189,30.19323366103919,3.1816959878885944,0.47427420528820385,A,1399,Correct
2,new_learn,4,781,D,97.86275468731019,51.63199956770393,4.893137734365509,0.8110335526602502,D,1404,Correct
2,new_learn,4,782,C,71.6077302770576,62.028709902291716,3.58038651385288,0.9743446967034605,B,6908,Incorrect
2,new_learn,4,783,B,28.101174190052287,28.978368820534534,1.4050587095026144,0.45519115299803403,B,933,Correct
2,new_learn,4,784,B,21.68883408899365,68.38642941394919,1.0844417044496826,1.0742115212604986,B,1144,Correct
2,new_learn,4,785,A,63.00727408957263,28.807953691223933,3.150363704478632,0.45251427840652036,A,1339,Correct
2,new_learn,4,786,C,60.94790194342252,98.24652592318293,3.0473950971711257,1.5432528204049532,A,5902,Incorrect
2,new_learn,4,787,B,18.085442080627995,74.47423924822127,0.9042721040313998,1.169838614519503,B,989,Correct
2,new_learn,4,788,A,48.87283174872348,7.408878343533988,2.443641587436174,0.11637838887693445,A,1566,Correct
2,new_learn,4,789,D,49.50986699078807,56.62709287034086,2.4754933495394034,0.8894962947780489,D,1646,Correct
2,new_learn,4,790,D,96.14879680178738,44.41493228896002,4.807439840089369,0.6976681249434245,C,927,Incorrect
2,new_learn,4,791,B,19.344800837577193,32.565213899828635,0.9672400418788597,0.5115331837514093,B,661,Correct
2,new_learn,4,792,D,59.16337260440219,58.03895185371024,2.9581686302201096,0.9116737238283389,D,1582,Correct
2,new_learn,4,793,B,20.927855331260375,46.65670271260106,1.0463927665630188,0.7328817724131523,B,1286,Correct
2,new_learn,4,794,C,72.20905975028182,72.08521131772844,3.6104529875140914,1.1323118515412174,D,1517,Incorrect
2,new_learn,4,795,C,49.85125452627803,93.82880980665124,2.492562726313902,1.473859497918247,A,7611,Incorrect
2,new_learn,4,796,D,81.94290414224089,55.86926570885681,4.097145207112044,0.8775923735620036,D,981,Correct
2,new_learn,4,797,C,40.68329325781657,57.222083623986066,2.0341646628908285,0.898842387681077,A,2719,Incorrect
2,new_learn,4,798,A,67.93320245200363,35.68452076519086,3.3966601226001814,0.5605311414139802,D,1412,Incorrect
2,new_learn,4,799,A,33.5881214797689,45.84148521328902,1.679406073988445,0.7200763658785696,D,982,Incorrect
2,new_learn,4,800,B,28.54026714544839,29.871333932612345,1.4270133572724193,0.4692178161781122,A,629,Incorrect
2,new_learn,4,801,A,45.09419883904652,41.91613923011446,2.254709941952326,0.6584171753608725,B,2860,Incorrect
2,new_learn,4,802,D,92.6627073400989,44.32815062407555,4.633135367004945,0.6963049617390877,D,1656,Correct
2,new_learn,4,803,B,11.759414565339473,33.22119546157158,0.5879707282669736,0.5218373180277194,B,1059,Correct
2,new_learn,4,804,D,83.64774083539427,41.30179159135489,4.182387041769714,0.6487670252174862,D,1031,Correct
2,new_learn,4,805,B,19.890540922831562,42.88868271562015,0.994527046141578,0.6736938527076789,B,971,Correct
2,new_learn,4,806,D,59.3614325015271,41.0165352144085,2.968071625076355,0.644286228526464,D,3033,Correct
2,new_learn,4,807,D,55.6988559762678,45.904552554827276,2.78494279881339,0.7210670253628597,A,2917,Incorrect
2,new_learn,4,808,C,54.89511751866322,61.287793280425646,2.744755875933161,0.9627064056225755,D,2006,Incorrect
2,new_learn,4,809,D,89.9456724259926,28.778813363430285,4.49728362129963,0.4520565432079217,D,2333,Correct
2,new_learn,4,810,C,65.3075408891208,69.39400042528688,3.2653770444560397,1.090038409696441,A,4451,Incorrect
2,new_learn,4,811,D,84.44998588588729,40.38363248999714,4.222499294294364,0.6343446157792254,D,1069,Correct
2,new_learn,4,812,B,36.90485015842219,36.13144256139892,1.8452425079211097,0.5675513725724621,B,1127,Correct
2,new_learn,4,813,B,0.9481944251589844,50.132916590828465,0.04740972125794922,0.7874860123238828,B,4190,Correct
2,new_learn,4,814,C,62.03467463488124,82.56058597028516,3.101733731744062,1.296858651801582,D,3942,Incorrect
2,new_learn,4,815,A,64.74962752255783,19.806928292870637,3.2374813761278913,0.31112650207531106,D,1948,Incorrect
2,new_learn,4,816,D,75.97539500174379,54.029562643430864,3.7987697500871893,0.8486943853863597,D,654,Correct
2,new_learn,4,817,C,31.29086349351012,66.26935130292401,1.5645431746755059,1.0409565360571365,B,900,Incorrect
2,new_learn,4,818,C,73.93524139929448,73.53264628784791,3.696762069964724,1.1550481068845988,D,1615,Incorrect
2,new_learn,4,819,C,50.79593364881452,99.90059302994159,2.539796682440726,1.569234845760641,A,1271,Incorrect
2,new_learn,4,820,B,-0.5751681247248577,45.47660400593736,-0.028758406236242883,0.7143448252763248,B,1068,Correct
2,new_learn,4,821,A,39.19694216579688,5.520440282046522,1.9598471082898439,0.0867148731732926,A,2440,Correct
2,new_learn,4,822,C,43.210319280424784,73.40078209330694,2.160515964021239,1.1529767889603915,A,1204,Incorrect
2,new_learn,4,823,C,34.727911116411356,56.368855688593044,1.7363955558205677,0.8854399146127357,D,2796,Incorrect
2,new_learn,4,824,A,29.170215869420847,21.92012292528213,1.4585107934710424,0.3443204857392577,B,518,Incorrect
2,new_learn,4,825,A,48.46240850338724,2.689606077987005,2.423120425169362,0.042248233478272154,A,4655,Correct
2,new_learn,4,826,C,61.80073314748601,64.23470873881097,3.0900366573743003,1.0089964453966431,D,1470,Incorrect
2,new_learn,4,827,A,66.19156280839077,30.520395205666166,3.3095781404195384,0.47941324681388986,D,596,Incorrect
2,new_learn,4,828,C,49.69322752514916,66.48042757694819,2.484661376257458,1.0442721144162435,A,741,Incorrect
2,new_learn,4,829,A,56.724073452131655,19.76823468806237,2.8362036726065827,0.3105187043522783,B,1111,Incorrect
2,new_learn,4,830,B,43.54379149170721,45.399009682760955,2.177189574585361,0.7131259764980685,A,7566,Incorrect
2,new_learn,4,831,C,35.80816327988201,87.88957029552242,1.7904081639941005,1.3805661418378847,D,989,Incorrect
2,new_learn,4,832,B,30.079410293929918,53.348376174165075,1.503970514696496,0.8379943333485089,B,813,Correct
2,new_learn,4,833,A,64.06408058220859,43.102515039264425,3.2032040291104296,0.6770527229929835,D,1167,Incorrect
2,new_learn,4,834,A,57.86458322194121,8.428075300260993,2.8932291610970604,0.13238789723600763,A,1247,Correct
2,new_learn,4,835,B,42.01858632923678,43.7090053756999,2.100929316461839,0.6865794509200779,B,1773,Correct
2,new_learn,4,836,B,26.061169327037547,42.551755685775106,1.3030584663518772,0.6684014152988939,B,829,Correct
2,new_learn,4,837,D,97.94452404571022,56.70705603032007,4.897226202285512,0.8907523531577917,D,1366,Correct
2,new_learn,4,838,D,83.95350114346205,43.45415651499733,4.197675057173103,0.6825762943772832,D,852,Correct
2,new_learn,4,839,D,71.8805352280187,72.80337078877075,3.5940267614009347,1.1435926741328795,A,1446,Incorrect
2,new_learn,4,840,D,72.68099291880154,69.69887823323035,3.6340496459400766,1.09482741910483,D,1036,Correct
2,new_learn,4,841,B,44.79957070078699,61.95823709596806,2.2399785350393495,0.9732377124503393,B,2047,Correct
2,new_learn,4,842,C,45.86571293276216,49.427920548591544,2.293285646638108,0.7764119603883758,B,1051,Incorrect
2,new_learn,4,843,B,35.25008198743367,28.64436861696964,1.7625040993716834,0.44994469006894927,B,1480,Correct
2,new_learn,4,844,B,18.618735159101924,35.75699445265975,0.9309367579550962,0.5616695554346343,B,1148,Correct
2,new_learn,4,845,D,88.62093005792254,44.61365648046976,4.431046502896127,0.7007896772441122,D,854,Correct
2,new_learn,4,846,A,60.3818446004953,48.46721508880883,3.019092230024765,0.7613212343147909,A,1510,Correct
2,new_learn,4,847,D,81.36798832769078,36.66692754243824,4.06839941638454,0.5759627509851661,A,2221,Incorrect
2,new_learn,4,848,C,44.2505744393188,79.6998792206098,2.2125287219659397,1.2519227752573079,A,2977,Incorrect
2,new_learn,4,849,A,45.908534130982,44.06315627817921,2.2954267065490996,0.6921424402875339,B,1811,Incorrect
2,new_learn,4,850,A,30.77734172159019,37.79759707907092,1.5388670860795093,0.5937232665347811,D,998,Incorrect
2,new_learn,4,851,B,18.854470314248374,30.86865046229483,0.9427235157124187,0.4848836275928831,B,502,Correct
2,new_learn,4,852,A,70.6444978146821,20.85139713157171,3.532224890734105,0.32753298022814487,D,950,Incorrect
2,new_learn,4,853,C,71.75294725973725,90.0243133000019,3.587647362986863,1.4140986065387593,D,2800,Incorrect
2,new_learn,4,854,C,31.314452397848754,81.9205135543902,1.5657226198924377,1.2868044178038767,B,1283,Incorrect
2,new_learn,4,855,A,30.98864194864146,43.64277951597265,1.5494320974320732,0.6855391775480939,B,1174,Incorrect
2,new_learn,4,856,B,33.37385586328847,53.897655496027554,1.6686927931644235,0.8466223927601686,B,855,Correct
2,new_learn,4,857,D,89.81020769823988,39.65064270698235,4.490510384911994,0.6228308391918473,C,1285,Incorrect
2,new_learn,4,858,C,37.80960181841175,87.4318062068609,1.8904800909205874,1.3733756003478033,A,3743,Incorrect
2,new_learn,4,859,C,28.088169034511004,75.68610866693002,1.4044084517255502,1.1888746148341305,D,3214,Incorrect
2,new_learn,4,860,A,65.26287157585307,36.60183507947753,3.2631435787926533,0.5749402809679589,D,1254,Incorrect
2,new_learn,4,861,C,39.244031424290874,69.10471696350426,1.9622015712145437,1.0854943557047347,D,5396,Incorrect
2,new_learn,4,862,A,61.474952371022894,4.484933440566845,3.0737476185511445,0.07044916974361998,A,2292,Correct
2,new_learn,4,863,B,38.577500465898524,72.2986940405797,1.9288750232949263,1.1356652303101067,A,2871,Incorrect
2,new_learn,4,864,A,47.62256869378704,22.690011113094517,2.381128434689352,0.3564138611138425,D,3356,Incorrect
2,new_learn,4,865,C,52.30999685333517,80.81150853492356,2.6154998426667584,1.2693842076941235,B,1478,Incorrect
2,new_learn,4,866,D,59.27984230572865,68.1492967371521,2.9639921152864326,1.0704866498837395,D,1604,Correct
2,new_learn,4,867,C,46.19257186409539,65.65982297513081,2.3096285932047693,1.0313820874733863,A,2304,Incorrect
2,new_learn,4,868,A,74.10352183029775,26.756290556721606,3.7051760915148875,0.42028682925155275,A,4333,Correct
2,new_learn,4,869,D,79.81332763635338,49.400416021355014,3.990666381817669,0.7759799202848421,C,1572,Incorrect
2,new_learn,4,870,C,39.689097027035814,73.41959545325038,1.9844548513517908,1.15327230852733,B,1454,Incorrect
2,new_learn,4,871,D,82.41891283520533,34.08745057798343,4.120945641760267,0.5354444215769896,A,2292,Incorrect
2,new_learn,4,872,D,91.6313617037874,70.69092829453302,4.581568085189371,1.1104105050277389,D,2704,Correct
2,new_learn,4,873,A,45.35777947470194,31.943754593839685,2.267888973735097,0.5017713238004098,A,2514,Correct
2,new_learn,4,874,B,19.05355915875026,50.24465230687571,0.9526779579375131,0.7892411528472709,A,5688,Incorrect
2,new_learn,4,875,C,37.99708173445498,94.99527540155277,1.899854086722749,1.492182296636287,A,1950,Incorrect
2,new_learn,4,876,C,25.51682095228782,81.42720379261641,1.2758410476143909,1.2790555261862133,D,1021,Incorrect
2,new_learn,4,877,A,32.52119252229217,43.97261697841139,1.6260596261146083,0.6907202522924751,A,2429,Correct
2,new_learn,4,878,A,52.12334637715762,6.0618376243549825,2.606167318857881,0.09521912273963908,D,1311,Incorrect
2,new_learn,4,879,B,20.21189520246497,63.72584315499089,1.0105947601232486,1.001003203497674,A,2212,Incorrect
2,new_learn,4,880,A,66.18196775047618,24.815436911155853,3.309098387523809,0.38979997147854106,D,950,Incorrect
2,new_learn,4,881,D,53.96209546981828,65.00863307616805,2.698104773490914,1.0211532204600198,A,2302,Incorrect
2,new_learn,4,882,D,70.77118024051128,33.79306104165396,3.5385590120255643,0.5308201615538576,A,1908,Incorrect
2,new_learn,4,883,B,38.99418328439184,60.30890761108639,1.949709164219592,0.9473301054850727,A,2136,Incorrect
2,new_learn,4,884,B,26.925291603765,71.27131235934776,1.34626458018825,1.1195271565991516,A,2278,Incorrect
2,new_learn,4,885,D,78.57082996421694,55.892190063062905,3.9285414982108473,0.8779524684758142,D,1013,Correct
2,new_learn,4,886,C,52.467967849637354,51.747252274610545,2.623398392481868,0.8128439379468708,A,1507,Incorrect
2,new_learn,4,887,C,60.43642019036915,70.48458898742741,3.0218210095184577,1.10716933477099,D,2559,Incorrect
2,new_learn,4,888,D,71.33666119460523,73.52991612475734,3.566833059730261,1.1550052215830566,A,1175,Incorrect
2,new_learn,4,889,B,19.51510768235429,39.62702458045869,0.9757553841177145,0.6224598465279558,B,1166,Correct
2,new_learn,4,890,D,54.149381834317616,57.32047436757763,2.707469091715881,0.9003879058673196,A,1670,Incorrect
2,new_learn,4,891,A,46.67411607009806,4.708954544707375,2.3337058035049028,0.07396808501870479,D,877,Incorrect
2,new_learn,4,892,C,64.16023258822342,70.77144239297381,3.208011629411171,1.1116752175285987,B,715,Incorrect
2,new_learn,4,893,A,64.26295462955514,37.70369634965358,3.213147731477757,0.5922482773262598,A,1300,Correct
2,new_learn,4,894,D,51.77971839871527,43.606288104796675,2.5889859199357637,0.6849659718017461,B,912,Incorrect
2,new_learn,4,895,D,77.15634561699012,23.684116138247465,3.857817280849506,0.3720292263334285,D,1075,Correct
2,new_learn,4,896,D,73.82530763005437,76.5202314939149,3.6912653815027183,1.2019769855613671,B,5687,Incorrect
2,new_learn,4,897,B,29.86039327498583,52.47260719858533,1.4930196637492914,0.8242377864488928,B,901,Correct
2,new_learn,4,898,A,60.82128331347887,42.069843034659826,3.041064165673944,0.6608315490768152,A,2596,Correct
