experiment,condition,subject,trial,cat,x,y,xt,yt,resp,rt,fb
2,relearn,7,0,B,62.36513745809579,63.29385504507324,3.118256872904789,0.9942175501348967,A,1368,Incorrect
2,relearn,7,1,B,66.96827425034837,71.04781913643698,3.3484137125174187,1.1160165332630336,B,876,Correct
2,relearn,7,2,A,18.37239420700071,65.62376236350832,0.9186197103500355,1.0308156487106004,C,734,Incorrect
2,relearn,7,3,D,42.818595366902514,17.605361246107602,2.1409297683451256,0.2765443677728305,D,1148,Correct
2,relearn,7,4,C,79.43667152431675,62.51057750392748,3.9718335762158374,0.9819138552899699,B,1182,Incorrect
2,relearn,7,5,B,40.23897107591147,89.52348212940686,2.0119485537955737,1.4062315689076086,D,814,Incorrect
2,relearn,7,6,D,36.92003869182055,14.351537468583174,1.8460019345910275,0.22543342339509778,A,960,Incorrect
2,relearn,7,7,C,58.24711678661713,69.25212201170645,2.9123558393308566,1.0878097887874048,B,636,Incorrect
2,relearn,7,8,A,49.81148121564872,59.96087848577092,2.490574060782436,0.941863276768441,B,1326,Incorrect
2,relearn,7,9,B,43.584238961004075,80.47686942909188,2.1792119480502037,1.2641277089117002,C,829,Incorrect
2,relearn,7,10,B,74.36472530958272,64.68735279556644,3.718236265479136,1.0161065616136136,B,1183,Correct
2,relearn,7,11,A,8.888116422208768,29.683435535322445,0.44440582111043836,0.466266315055376,D,2812,Incorrect
2,relearn,7,12,C,63.69819273744578,31.715775903216553,3.184909636872289,0.4981902429022265,B,1053,Incorrect
2,relearn,7,13,B,40.418016563155405,93.11175464221486,2.02090082815777,1.4625960217341876,A,1710,Incorrect
2,relearn,7,14,B,40.23424327352421,57.98230822405617,2.0117121636762105,0.9107839677743697,C,623,Incorrect
2,relearn,7,15,D,61.89036805736609,10.03468841079337,3.094518402868305,0.15762451696205543,B,747,Incorrect
2,relearn,7,16,B,75.83911968634725,73.29573842929973,3.7919559843173625,1.1513267669446356,B,973,Correct
2,relearn,7,17,A,15.195643537350191,34.14009875305372,0.7597821768675095,0.5362714171771181,C,845,Incorrect
2,relearn,7,18,D,28.271264778410902,35.99417817871387,1.4135632389205453,0.5653952286912476,C,782,Incorrect
2,relearn,7,19,A,42.943606491077404,63.9163313186629,2.14718032455387,1.0039953845756129,B,1006,Incorrect
2,relearn,7,20,B,64.73444701396534,55.696564122788175,3.2367223506982667,0.8748795833917209,B,606,Correct
2,relearn,7,21,D,66.1924216999713,33.715640291435236,3.3096210849985654,0.5296040392532448,A,1407,Incorrect
2,relearn,7,22,B,42.543932519016124,80.24143334575695,2.1271966259508064,1.2604294875627253,B,733,Correct
2,relearn,7,23,D,57.41705045943904,4.645438468455588,2.870852522971952,0.07297037682601747,D,1643,Correct
2,relearn,7,24,A,30.783055689727206,41.52458019670097,1.5391527844863604,0.6522665804467798,C,817,Incorrect
2,relearn,7,25,B,24.185423550935564,82.1265096901891,1.2092711775467782,1.290040197538345,A,746,Incorrect
2,relearn,7,26,C,53.01860834502761,52.164289163556745,2.6509304172513803,0.8193947380798177,B,832,Incorrect
2,relearn,7,27,B,67.11946284943686,74.57062789799889,3.355973142471843,1.1713526838896569,B,732,Correct
2,relearn,7,28,A,3.7683445116650844,60.57407376371877,0.18841722558325422,0.9514953256705256,C,1036,Incorrect
2,relearn,7,29,A,42.15206757743901,30.977809810520018,2.107603378871951,0.4865982986251575,B,560,Incorrect
2,relearn,7,30,C,72.02093861446399,25.741106807975925,3.6010469307231996,0.4043403602160369,B,620,Incorrect
2,relearn,7,31,A,6.861139046035049,53.80556572140866,0.3430569523017525,0.8451758499631014,C,702,Incorrect
2,relearn,7,32,B,33.146971162213205,75.06780166186817,1.6573485581106604,1.1791622711103036,C,2366,Incorrect
2,relearn,7,33,B,38.59294823595214,68.94642562250198,1.9296474117976072,1.0830079211346364,B,731,Correct
2,relearn,7,34,C,92.8854866277663,59.482897885642856,4.644274331388314,0.9343551750588373,A,2030,Incorrect
2,relearn,7,35,A,23.457201944172773,30.78779792918071,1.1728600972086385,0.4836135989726058,C,830,Incorrect
2,relearn,7,36,C,61.27189658471148,37.930153123183175,3.0635948292355737,0.595805452006641,B,782,Incorrect
2,relearn,7,37,A,9.351248448841378,63.33320156067737,0.46756242244206886,0.9948356037567283,C,479,Incorrect
2,relearn,7,38,C,86.90361980435776,73.92831222133184,4.345180990217887,1.1612632128341431,D,415,Incorrect
2,relearn,7,39,C,52.65727103450253,59.13937378998597,2.6328635517251264,0.9289591111826033,B,346,Incorrect
2,relearn,7,40,C,74.22646728594495,23.36438734461901,3.7113233642972476,0.3670069381874071,C,704,Correct
2,relearn,7,41,B,49.26739889225066,96.6536189302982,2.4633699446125332,1.5182314958714611,B,810,Correct
2,relearn,7,42,B,56.65780202655741,98.27943952909413,2.8328901013278704,1.543769826117622,B,863,Correct
2,relearn,7,43,C,70.17982919368478,27.02311218961011,3.508991459684239,0.42447805366005953,C,573,Correct
2,relearn,7,44,A,39.143499354240134,41.541938109138826,1.9571749677120067,0.652539237897762,D,2075,Incorrect
2,relearn,7,45,D,45.65046951340205,36.29433520159776,2.2825234756701023,0.5701100841813248,D,848,Correct
2,relearn,7,46,B,40.73277203253582,59.910501616715074,2.036638601626791,0.9410719587597574,A,1325,Incorrect
2,relearn,7,47,C,68.88267462493614,40.82224184254351,3.4441337312468074,0.6412342753780028,B,1084,Incorrect
2,relearn,7,48,C,80.87070436961712,70.92325252918567,4.043535218480856,1.114059845571917,B,1022,Incorrect
2,relearn,7,49,B,47.771199056820976,63.57771499783395,2.388559952841049,0.9986764118461038,B,301,Correct
2,relearn,7,50,B,36.039881448062474,71.35541633347374,1.8019940724031238,1.1208482587354112,B,575,Correct
2,relearn,7,51,C,64.37276266408567,69.38471160765725,3.2186381332042835,1.0898925012903122,C,844,Correct
2,relearn,7,52,D,46.10332854128687,30.70006603041543,2.3051664270643437,0.48223550952937344,B,1153,Incorrect
2,relearn,7,53,A,16.872934637961894,59.282459763519995,0.8436467318980947,0.9312067003990345,B,860,Incorrect
2,relearn,7,54,A,22.49670726908961,47.26057683126538,1.1248353634544805,0.7423674048875964,C,591,Incorrect
2,relearn,7,55,C,64.6278092357874,53.67643714217716,3.2313904617893696,0.8431475029836903,C,460,Correct
2,relearn,7,56,A,3.7576917652943784,61.75323455197566,0.18788458826471893,0.9700175400194705,C,812,Incorrect
2,relearn,7,57,B,66.2990072147596,62.43479587625943,3.31495036073798,0.9807234802661747,B,959,Correct
2,relearn,7,58,C,75.99540669379388,73.03535484657439,3.7997703346896943,1.1472366711916089,B,750,Incorrect
2,relearn,7,59,D,62.32790221587219,45.09308286478197,3.1163951107936096,0.7083204892785742,A,413,Incorrect
2,relearn,7,60,C,74.49664634274286,37.91122019928377,3.724832317137143,0.5955080543334742,B,528,Incorrect
2,relearn,7,61,A,30.84697428046999,69.07177535291584,1.5423487140234995,1.0849769100956246,C,797,Incorrect
2,relearn,7,62,B,25.973323692680317,73.59618964534447,1.2986661846340157,1.156046243610077,A,1468,Incorrect
2,relearn,7,63,C,81.15686034222314,33.27803870677835,4.057843017111157,0.5227302096354582,B,1119,Incorrect
2,relearn,7,64,B,55.73321890239866,76.19893006041346,2.7866609451199333,1.1969299944459868,B,829,Correct
2,relearn,7,65,C,79.3142481047069,35.76204657143208,3.965712405235345,0.5617489139307353,C,1723,Correct
2,relearn,7,66,B,23.921490710169746,74.60805831961623,1.1960745355084874,1.171940639577526,D,897,Incorrect
2,relearn,7,67,A,49.32535816786114,51.72461893957697,2.466267908393057,0.8124884143515323,C,812,Incorrect
2,relearn,7,68,C,60.11515805306907,34.60663892896438,3.0057579026534533,0.5435998131233453,D,813,Incorrect
2,relearn,7,69,B,41.946922175810954,89.34978940004314,2.0973461087905476,1.4035032098948534,A,351,Incorrect
2,relearn,7,70,D,56.397177645860516,37.06259999737496,2.8198588822930257,0.5821779593734513,B,362,Incorrect
2,relearn,7,71,D,27.267460341630148,29.148806931506506,1.3633730170815073,0.4578683885846404,C,625,Incorrect
2,relearn,7,72,B,46.00164136329321,59.870958523312616,2.3000820681646603,0.9404508173010906,B,315,Correct
2,relearn,7,73,D,48.37376454939963,49.91767352256039,2.4186882274699815,0.7841049821138473,B,605,Incorrect
2,relearn,7,74,B,38.14954117314377,82.24708726629808,1.9074770586571885,1.2919342256748032,C,891,Incorrect
2,relearn,7,75,A,39.666446421982414,44.63942917710179,1.9833223210991207,0.7011945138161243,C,720,Incorrect
2,relearn,7,76,C,75.8795031129259,75.77755300586549,3.7939751556462955,1.1903110191511908,B,783,Incorrect
2,relearn,7,77,B,38.211812805884314,80.36260536765847,1.9105906402942157,1.2623328532318578,B,828,Correct
2,relearn,7,78,A,30.624513778661083,72.22074264932004,1.5312256889330542,1.1344407727195145,B,890,Incorrect
2,relearn,7,79,B,61.22701906657699,76.27587059303754,3.0613509533288497,1.1981385735062624,C,798,Incorrect
2,relearn,7,80,B,54.21196126331047,52.69424426319539,2.7105980631655235,0.8277192533186035,C,671,Incorrect
2,relearn,7,81,D,63.043159127558184,7.2091774597504354,3.152157956377909,0.11324149472988548,B,542,Incorrect
2,relearn,7,82,D,38.54376383437039,29.266292937334025,1.9271881917185194,0.4597138544486771,C,412,Incorrect
2,relearn,7,83,B,70.84275509440502,79.74100023142343,3.5421377547202506,1.2525687025847092,D,430,Incorrect
2,relearn,7,84,C,84.24215554900613,58.92161770542193,4.212107777450306,0.9255386066048991,B,511,Incorrect
2,relearn,7,85,D,61.466259172681625,5.85233432988559,3.073312958634081,0.09192825268559957,D,477,Correct
2,relearn,7,86,B,59.43311805934617,67.57075758550123,2.971655902967308,1.061398978140537,B,1151,Correct
2,relearn,7,87,C,86.98134151764924,68.91412379001697,4.349067075882462,1.0825005251364745,A,1485,Incorrect
2,relearn,7,88,A,21.479675944751847,62.8093207383594,1.0739837972375923,0.9866065030429747,C,667,Incorrect
2,relearn,7,89,D,66.81137042537976,18.42641175876309,3.340568521268988,0.28944139906675354,A,734,Incorrect
2,relearn,7,90,D,35.78428491864207,30.28341417209238,1.7892142459321037,0.4756907574433123,A,576,Incorrect
2,relearn,7,91,B,52.44181501706907,78.13109239875087,2.6220907508534532,1.227280329484305,A,302,Incorrect
2,relearn,7,92,B,68.24458004362117,82.74520254513452,3.4122290021810584,1.2997586021779701,A,939,Incorrect
2,relearn,7,93,D,47.280318184229465,24.185091402308636,2.364015909211473,0.37989852737945234,C,318,Incorrect
2,relearn,7,94,D,28.845432493258034,20.416012293331423,1.4422716246629017,0.3206939711816445,D,384,Correct
2,relearn,7,95,A,4.833548635097788,61.70801218019169,0.2416774317548894,0.9693071886645984,A,1708,Correct
2,relearn,7,96,A,33.69840544713517,46.84652230742335,1.6849202723567587,0.735863451636158,C,1933,Incorrect
2,relearn,7,97,B,64.30830189402485,79.72535896265569,3.2154150947012425,1.2523230101094414,B,1024,Correct
2,relearn,7,98,A,29.19495595778771,37.78360941023273,1.4597477978893856,0.5935035487464665,C,1434,Incorrect
2,relearn,7,99,B,54.77999897002998,56.66491880529077,2.738999948501499,0.8900904631748179,B,957,Correct
2,relearn,7,100,A,44.57341454698414,37.91885146495167,2.228670727349207,0.5956279259742737,C,1918,Incorrect
2,relearn,7,101,C,83.77353720705226,27.92566161941977,4.188676860352612,0.438655266951018,B,1504,Incorrect
2,relearn,7,102,B,62.120059690132024,94.11319406484388,3.1060029845066013,1.4783265953999205,C,1053,Incorrect
2,relearn,7,103,B,60.78948822783802,66.32992766200995,3.039474411391901,1.0419080672805643,B,924,Correct
2,relearn,7,104,D,28.902728567727454,28.991462240095554,1.4451364283863728,0.4553968239515504,C,3084,Incorrect
2,relearn,7,105,D,24.194059170107053,21.783816731500284,1.2097029585053527,0.3421793930541386,D,815,Correct
2,relearn,7,106,D,30.60716147948068,21.508841356969874,1.5303580739740341,0.33786008997142436,D,637,Correct
2,relearn,7,107,B,45.154901678388185,60.51280800812442,2.257745083919409,0.9505329654320664,C,657,Incorrect
2,relearn,7,108,D,47.87520260980484,25.670589532045845,2.3937601304902416,0.4032326774359713,C,764,Incorrect
2,relearn,7,109,C,92.44538270475073,53.24295444046827,4.622269135237536,0.8363383726279557,B,1342,Incorrect
2,relearn,7,110,B,36.99952537151862,57.6441905870534,1.8499762685759311,0.9054728283520845,B,811,Correct
2,relearn,7,111,B,50.179499855328864,88.72289482744283,2.508974992766443,1.393655972975571,C,1181,Incorrect
2,relearn,7,112,C,75.32342981720629,33.3431787434253,3.766171490860314,0.5237534269383813,D,396,Incorrect
2,relearn,7,113,C,87.94958700777406,71.0035044413396,4.3974793503887035,1.1153204396602137,A,896,Incorrect
2,relearn,7,114,A,8.339425644987141,31.843040197028497,0.4169712822493571,0.5001893057547461,B,300,Incorrect
2,relearn,7,115,A,12.703106834971946,33.342430871106586,0.6351553417485973,0.5237416793874698,A,829,Correct
2,relearn,7,116,B,56.30500628546365,64.01911287462569,2.8152503142731824,1.005609873481299,B,1518,Correct
2,relearn,7,117,D,66.11708307434793,42.365455717131425,3.3058541537173967,0.665475022234619,D,2448,Correct
2,relearn,7,118,A,11.980625183735736,69.64929254608097,0.5990312591867868,1.0940485289524715,A,1292,Correct
2,relearn,7,119,D,67.72554286280351,30.53035645187214,3.3862771431401755,0.47956971770339624,B,1117,Incorrect
2,relearn,7,120,A,43.99456226801122,48.302745933369415,2.1997281134005613,0.7587377588624379,B,846,Incorrect
2,relearn,7,121,A,6.759628860692388,67.81993888782333,0.3379814430346194,1.0653131088844725,A,3805,Correct
2,relearn,7,122,D,34.02763533425767,20.11494588106617,1.7013817667128834,0.3159648310365687,C,1616,Incorrect
2,relearn,7,123,D,59.561796149709,45.212131583083064,2.97808980748545,0.710190502172744,B,831,Incorrect
2,relearn,7,124,C,65.88459380673103,54.97001092935092,3.2942296903365516,0.8634669125169975,B,318,Incorrect
2,relearn,7,125,C,79.10905734933517,67.48563975388379,3.9554528674667586,1.0600619503680428,B,397,Incorrect
2,relearn,7,126,A,29.763102247907696,42.801244053210766,1.4881551123953847,0.6723203694103538,B,414,Incorrect
2,relearn,7,127,D,70.32243895558804,10.476892127852354,3.516121947779402,0.16457063670656844,B,302,Incorrect
2,relearn,7,128,B,36.00661629948276,53.67577150389627,1.8003308149741377,0.8431370471620244,B,796,Correct
2,relearn,7,129,B,35.8059466369632,58.932946931935305,1.7902973318481599,0.9257165656788255,B,591,Correct
2,relearn,7,130,A,5.976174119085744,46.858794080059965,0.2988087059542872,0.7360562161899663,A,557,Correct
2,relearn,7,131,B,33.30403775923526,58.78509018487324,1.665201887961763,0.923394037327056,C,1311,Incorrect
2,relearn,7,132,C,57.78118488776438,46.26157510137094,2.889059244388219,0.7266751224097971,D,814,Incorrect
2,relearn,7,133,B,55.12592972001464,87.01284209769278,2.756296486000732,1.3667945275104016,C,877,Incorrect
2,relearn,7,134,C,85.98746195150929,46.08659912599914,4.299373097575465,0.7239266062158835,C,717,Correct
2,relearn,7,135,D,56.65599243625139,31.329100062147923,2.8327996218125695,0.4921163529941172,D,1276,Correct
2,relearn,7,136,A,41.0060007241369,56.16471436980038,2.0503000362068446,0.8822332702756697,C,1422,Incorrect
2,relearn,7,137,D,39.898530554243976,24.42176497118549,1.9949265277121986,0.38361618710586437,C,1071,Incorrect
2,relearn,7,138,B,66.11297263915138,59.06107422849013,3.305648631957569,0.9277291845467301,D,622,Incorrect
2,relearn,7,139,C,89.53860669914896,49.83942133492432,4.476930334957448,0.7828757996248233,A,1181,Incorrect
2,relearn,7,140,A,13.455637396558457,53.62138190334556,0.6727818698279228,0.8422826973144154,B,812,Incorrect
2,relearn,7,141,D,49.352322816514246,5.268394241233246,2.467616140825712,0.08275574322236569,C,1647,Incorrect
2,relearn,7,142,C,90.73678089070822,59.073846226170446,4.536839044535411,0.927929806617151,C,1118,Correct
2,relearn,7,143,C,88.30412619519346,39.29044777909624,4.415206309759673,0.6171729104953108,C,973,Correct
2,relearn,7,144,B,29.61903158033596,74.73582020288897,1.4809515790167982,1.173947518547018,A,991,Incorrect
2,relearn,7,145,B,59.824831687378804,95.58212184180269,2.9912415843689404,1.5014004589636591,B,796,Correct
2,relearn,7,146,D,63.4739031805601,14.695929304990857,3.1736951590280054,0.23084311771117116,B,623,Incorrect
2,relearn,7,147,B,55.18910728670812,55.8063899054537,2.7594553643354063,0.8766047227517048,A,508,Incorrect
2,relearn,7,148,B,46.575261826517064,65.64631270892154,2.3287630913258535,1.031169868708031,C,398,Incorrect
2,relearn,7,149,A,33.15839706843265,64.27626924805924,1.6579198534216324,1.0096492763493121,C,717,Incorrect
2,relearn,7,150,B,56.81642101612123,82.46842736074123,2.8408210508060616,1.2954110277480408,D,334,Incorrect
2,relearn,7,151,A,9.665108079934555,71.7990306918513,0.48325540399672773,1.1278165367819406,A,1372,Correct
2,relearn,7,152,D,60.78968608073006,21.76930372758719,3.0394843040365025,0.3419514233217641,B,1008,Incorrect
2,relearn,7,153,C,58.451216808325455,52.14198153826036,2.922560840416273,0.8190443307210669,B,748,Incorrect
2,relearn,7,154,B,42.27356594866908,54.6736853671345,2.113678297433454,0.8588122414703477,C,990,Incorrect
2,relearn,7,155,C,57.8954227160735,35.97703245276674,2.8947711358036745,0.5651259042578678,D,446,Incorrect
2,relearn,7,156,C,79.32034689485894,37.58666923117426,3.9660173447429474,0.5904100196478328,D,1293,Incorrect
2,relearn,7,157,A,10.694690170153173,51.94777976773504,0.5347345085076587,0.8159938164430844,A,829,Correct
2,relearn,7,158,D,50.758981787389565,3.283977286957427,2.5379490893694783,0.05158459459630597,B,864,Incorrect
2,relearn,7,159,A,23.429907781563482,66.63907498351053,1.171495389078174,1.0467641420510803,C,988,Incorrect
2,relearn,7,160,C,69.6642039821025,67.85078652245758,3.483210199105125,1.0657976623962104,C,1869,Correct
2,relearn,7,161,C,94.83378364748951,65.44043013743605,4.741689182374476,1.027935872837626,B,2412,Incorrect
2,relearn,7,162,A,19.577077279287014,46.1746650108941,0.9788538639643507,0.7253099419009729,A,639,Correct
2,relearn,7,163,C,86.53223671528266,52.027666153564944,4.326611835764133,0.8172486688573097,D,1774,Incorrect
2,relearn,7,164,D,52.6480433649817,30.035094767998682,2.6324021682490852,0.47179016536508944,B,987,Incorrect
2,relearn,7,165,B,54.17406229218544,92.841781014064,2.708703114609272,1.458355285899879,C,366,Incorrect
2,relearn,7,166,D,67.84314241138009,7.97924196055617,3.392157120569004,0.12533763962249342,A,319,Incorrect
2,relearn,7,167,D,65.4671082996457,25.17935406290721,3.273355414982285,0.3955163687308279,B,799,Incorrect
2,relearn,7,168,B,55.74647466309739,93.39553511885853,2.7873237331548695,1.4670536350374674,B,731,Correct
2,relearn,7,169,C,87.50830790107632,32.9805077430818,4.375415395053816,0.5180566041866353,B,943,Incorrect
2,relearn,7,170,D,69.43045375414158,38.170199130030184,3.471522687707079,0.5995760858648116,B,605,Incorrect
2,relearn,7,171,B,45.93126794648379,81.66061175208888,2.2965633973241895,1.2827218898400536,D,1532,Incorrect
2,relearn,7,172,C,93.71157494292524,64.48113240741736,4.685578747146263,1.0128672593314656,C,591,Correct
2,relearn,7,173,C,75.79400853490132,35.503000848331794,3.789700426745066,0.5576798332275568,C,909,Correct
2,relearn,7,174,A,44.53907266024733,41.26100398723497,2.226953633012366,0.6481263350301828,D,3615,Incorrect
2,relearn,7,175,D,50.89427677200398,10.072107460262362,2.544713838600199,0.15821229401663597,B,1211,Incorrect
2,relearn,7,176,D,27.425868602010077,24.571808957199952,1.3712934301005038,0.3859730725267563,A,831,Incorrect
2,relearn,7,177,C,96.84148203896413,62.92062713380496,4.8420741019482065,0.9883548998141213,C,859,Correct
2,relearn,7,178,B,53.61249195007937,56.61940578638098,2.6806245975039684,0.8893755463455695,A,1791,Incorrect
2,relearn,7,179,C,83.74655856909166,45.13563033297309,4.187327928454583,0.7089888233460645,B,911,Incorrect
2,relearn,7,180,D,47.53780486748319,50.532796069220225,2.3768902433741594,0.7937673044820673,A,1036,Incorrect
2,relearn,7,181,D,54.32364104545661,12.538037177124025,2.7161820522728304,0.19694702743044273,C,943,Incorrect
2,relearn,7,182,D,73.0185982071676,35.24291833623379,3.65092991035838,0.5535944666808855,D,317,Correct
2,relearn,7,183,D,39.890912401436545,11.879888019221235,1.9945456200718272,0.1866088446332742,C,1130,Incorrect
2,relearn,7,184,B,26.994355307511725,70.31389082870714,1.3497177653755863,1.1044880143639055,A,833,Incorrect
2,relearn,7,185,C,82.97619337124424,63.93979206130532,4.148809668562212,1.004363905059279,B,698,Incorrect
2,relearn,7,186,C,60.49639457400042,38.08333634429714,3.024819728700021,0.5982116484171652,D,1006,Incorrect
2,relearn,7,187,B,35.363742041465684,58.480467431870515,1.7681871020732842,0.9186090343123078,C,624,Incorrect
2,relearn,7,188,C,62.322076978264434,62.87903567895251,3.1161038489132213,0.9877015827690384,A,491,Incorrect
2,relearn,7,189,B,56.28809210192482,86.90373495194686,2.814404605096241,1.3650806764727539,C,353,Incorrect
2,relearn,7,190,A,19.44823576557017,75.94590688609644,0.9724117882785086,1.1929555157178753,A,874,Correct
2,relearn,7,191,D,45.71809855742278,50.429075300718154,2.2859049278711385,0.7921380624603132,A,879,Incorrect
2,relearn,7,192,C,92.71141744234404,43.96002982182016,4.635570872117202,0.6905225336990921,B,941,Incorrect
2,relearn,7,193,A,30.067109108769305,41.83338872094897,1.5033554554384654,0.6571173334024969,B,430,Incorrect
2,relearn,7,194,D,27.261363881085423,36.50793528109833,1.3630681940542713,0.5734653063841507,C,655,Incorrect
2,relearn,7,195,D,42.84497394693391,43.274196558636795,2.142248697346696,0.6797494899930703,C,509,Incorrect
2,relearn,7,196,D,68.06359074129429,24.85236004761054,3.4031795370647147,0.3903799587497088,D,349,Correct
2,relearn,7,197,C,54.58931176012851,60.267352271196934,2.7294655880064256,0.9466773557325022,C,1564,Correct
2,relearn,7,198,A,42.00250428090072,61.672807993910695,2.100125214045036,0.9687542025996186,C,1056,Incorrect
2,relearn,7,199,A,20.894860749794578,24.032042015262434,1.0447430374897289,0.37749443322954856,A,1309,Correct
2,relearn,7,200,D,37.27790514245669,9.839833224494631,1.8638952571228344,0.1545637388531055,A,1132,Incorrect
2,relearn,7,201,C,76.56883304436974,50.025067517923624,3.828441652218487,0.7857919230482112,C,1087,Correct
2,relearn,7,202,B,44.20996643499496,49.397949790840215,2.210498321749748,0.7759411808265053,B,940,Correct
2,relearn,7,203,A,28.892889346254098,48.83005994826381,1.444644467312705,0.7670207880390739,A,749,Correct
2,relearn,7,204,B,53.50332331232028,49.2171564323341,2.675166165616014,0.7731012853920022,D,861,Incorrect
2,relearn,7,205,B,70.34423635436774,68.3519501319301,3.517211817718387,1.0736699219650372,B,717,Correct
2,relearn,7,206,D,43.81292287277496,8.26834299246902,2.190646143638748,0.12987882801250658,C,797,Incorrect
2,relearn,7,207,D,66.7014106233563,29.54105508896027,3.335070531167815,0.46402980823384476,C,1087,Incorrect
2,relearn,7,208,A,41.21928206862968,56.55931526515524,2.060964103431484,0.8884316466454036,C,396,Incorrect
2,relearn,7,209,D,51.25843641095884,47.218105326558096,2.5629218205479423,0.74170026405172,C,367,Incorrect
2,relearn,7,210,B,39.700419663449594,74.96930660969697,1.9850209831724797,1.1776151144487237,C,1118,Incorrect
2,relearn,7,211,D,28.17201932260173,19.89223440670972,1.4086009661300867,0.31246648737802685,C,686,Incorrect
2,relearn,7,212,B,38.82182664445334,94.06507134201472,1.9410913322226668,1.4775706854373662,C,591,Incorrect
2,relearn,7,213,D,60.59162142020394,17.314368990507923,3.029581071010197,0.27197347211061307,C,733,Incorrect
2,relearn,7,214,C,84.68664649438337,28.721866393507284,4.234332324719168,0.45116202229615027,C,940,Correct
2,relearn,7,215,D,44.00013286073541,11.463261033576682,2.2000066430367706,0.1800644832463332,A,1101,Incorrect
2,relearn,7,216,A,9.570571573006484,62.80818872223168,0.47852857865032417,0.9865887213752217,A,718,Correct
2,relearn,7,217,D,53.27583354432682,-0.6649768528334441,2.6637916772163415,-0.010445431978344044,C,1115,Incorrect
2,relearn,7,218,D,28.12043618341766,10.99454393829818,1.4060218091708832,0.1727018923306388,B,846,Incorrect
2,relearn,7,219,C,74.2572724309722,69.81383880157439,3.7128636215486095,1.0966332154896408,C,13,Correct
2,relearn,7,220,C,99.71585136195439,46.19686916903129,4.985792568097719,0.7256587240013874,D,1344,Incorrect
2,relearn,7,221,D,46.8567167120984,36.68902877817113,2.34283583560492,0.5763099163842347,B,716,Incorrect
2,relearn,7,222,A,16.42311067636358,40.75640972638786,0.8211555338181791,0.6402001869155783,A,1116,Correct
2,relearn,7,223,C,77.57731260006294,74.22164256949824,3.878865630003147,1.1658708351685156,C,1085,Correct
2,relearn,7,224,D,34.36267714480064,13.679878098830606,1.7181338572400322,0.21488302268645068,C,974,Incorrect
2,relearn,7,225,D,24.701544386981396,25.275724018156012,1.2350772193490698,0.39703014444801005,A,2957,Incorrect
2,relearn,7,226,A,31.67019685120998,60.891140132666614,1.5835098425604992,0.9564757925474603,B,1071,Incorrect
2,relearn,7,227,B,35.380352817497524,94.74948705670359,1.7690176408748761,1.4883214623437058,C,1516,Incorrect
2,relearn,7,228,A,48.638909601877586,54.0076344416794,2.431945480093879,0.8483499379987154,A,1583,Correct
2,relearn,7,229,B,38.205091698262564,88.90658969308691,1.910254584913128,1.3965414451776195,B,394,Correct
2,relearn,7,230,A,3.3134030855451755,64.35887563984532,0.16567015427725879,1.0109468545171858,A,1023,Correct
2,relearn,7,231,C,71.65070595298789,38.407515605555886,3.5825352976493945,0.6033038443452485,D,1102,Incorrect
2,relearn,7,232,A,51.05336758856302,56.33825361589984,2.552668379428151,0.8849592183789476,B,780,Incorrect
2,relearn,7,233,A,21.245492139048995,44.27922770753839,1.0622746069524498,0.6955364823631611,A,1069,Correct
2,relearn,7,234,D,29.72628428534974,13.221463093213899,1.4863142142674872,0.20768225661674683,A,1709,Incorrect
2,relearn,7,235,A,3.687163252097111,35.45364926566498,0.18435816260485555,0.5569046203798114,A,896,Correct
2,relearn,7,236,C,94.98862414426515,38.54342080006856,4.749431207213258,0.605438638148577,B,2015,Incorrect
2,relearn,7,237,A,43.87936609094299,55.893089538831546,2.1939683045471496,0.8779665974081485,A,2462,Correct
2,relearn,7,238,D,67.42954945280805,37.73468716516871,3.371477472640402,0.5927350799180154,C,796,Incorrect
2,relearn,7,239,C,56.57811078660963,61.866519898065086,2.8289055393304814,0.9717970220746401,C,63,Correct
2,relearn,7,240,B,58.360827636595175,85.55654061233065,2.9180413818297586,1.3439189972712737,D,285,Incorrect
2,relearn,7,241,C,88.07163570620082,54.434790858896974,4.403581785310041,0.8550596953100378,C,573,Correct
2,relearn,7,242,C,66.57201327642667,51.36186223350252,3.3286006638213337,0.8067902453373127,C,395,Correct
2,relearn,7,243,B,34.36639296363171,68.2459861246845,1.7183196481815854,1.072005443231499,A,862,Incorrect
2,relearn,7,244,D,49.047110461803605,14.073718038734587,2.4523555230901803,0.22106944599591366,C,494,Incorrect
2,relearn,7,245,B,54.83124604557554,100.55723751719178,2.741562302278777,1.5795493932464681,B,366,Correct
2,relearn,7,246,A,21.897535673303157,75.3848217332714,1.0948767836651578,1.184142010747108,B,479,Incorrect
2,relearn,7,247,D,60.256308011531814,42.61863344804599,3.012815400576591,0.6694519287320877,A,335,Incorrect
2,relearn,7,248,D,44.44258038702244,45.27202072860858,2.222129019351122,0.7111312386708077,B,1099,Incorrect
2,relearn,7,249,C,52.04273262935975,41.78711873687072,2.6021366314679875,0.6563905261921872,B,672,Incorrect
2,relearn,7,250,C,81.93152980494085,27.176625385411043,4.096576490247043,0.4268894333008461,B,1611,Incorrect
2,relearn,7,251,A,32.718550205361154,73.06362540671424,1.635927510268058,1.14768074411185,B,895,Incorrect
2,relearn,7,252,A,34.907011180551734,37.732062949601854,1.7453505590275866,0.592693858836284,D,299,Incorrect
2,relearn,7,253,A,19.392153486385396,35.192493932427446,0.9696076743192699,0.5528024019980872,A,353,Correct
2,relearn,7,254,D,31.15490312840715,43.42409539666705,1.5577451564203573,0.6821040954347578,D,284,Correct
2,relearn,7,255,B,63.75950412400579,94.95588900387588,3.1879752062002895,1.4915636165483215,B,62,Correct
2,relearn,7,256,C,55.991972710930185,63.36885210854668,2.7995986355465097,0.9953956012531416,A,172,Incorrect
2,relearn,7,257,C,64.54020382569612,63.41121188962739,3.2270101912848066,0.9960609871383957,C,79,Correct
2,relearn,7,258,A,40.45834868382114,50.626662628641014,2.0229174341910574,0.7952417569495377,B,110,Incorrect
2,relearn,7,259,D,47.732426415706584,40.962430867536185,2.3866213207853293,0.6434363594331572,A,382,Incorrect
2,relearn,7,260,B,61.890223805338756,55.977334421953785,3.094511190266938,0.8792899129377454,B,463,Correct
2,relearn,7,261,B,56.668680254230196,82.04158889518284,2.8334340127115096,1.2887062648097019,A,366,Incorrect
2,relearn,7,262,D,46.531535781637324,46.22892432071927,2.3265767890818663,0.7261622451466511,B,315,Incorrect
2,relearn,7,263,A,13.314227186876945,52.269034062613414,0.6657113593438473,0.8210400671067047,C,28,Incorrect
2,relearn,7,264,A,35.6368795664072,57.113107883234235,1.7818439783203601,0.8971306007482498,A,445,Correct
2,relearn,7,265,C,93.67207280003376,31.412748745509205,4.683603640001689,0.49343030343976857,A,496,Incorrect
2,relearn,7,266,A,35.18971470809469,32.901130245096496,1.7594857354047346,0.5168097453639805,C,667,Incorrect
2,relearn,7,267,C,80.38650231931575,50.43475254670114,4.0193251159657875,0.792227240431677,B,910,Incorrect
2,relearn,7,268,D,62.984781419863126,5.066196848196839,3.149239070993156,0.07957963399967477,A,747,Incorrect
2,relearn,7,269,B,46.18019541006987,83.00689820759631,2.3090097705034935,1.3038693080313015,D,767,Incorrect
2,relearn,7,270,C,83.51056230403759,42.64188731893604,4.17552811520188,0.6698171996818661,D,669,Incorrect
2,relearn,7,271,A,23.32552687982614,70.09384289648787,1.166276343991307,1.1010315095274168,A,684,Correct
2,relearn,7,272,A,15.440820341766903,42.22888376811306,0.7720410170883452,0.6633297550760062,B,337,Incorrect
2,relearn,7,273,B,67.41120415969866,55.5489839172335,3.3705602079849326,0.8725613989437916,B,1534,Correct
2,relearn,7,274,C,55.357070627395466,35.80203218924591,2.767853531369773,0.5623770065466013,C,1565,Correct
2,relearn,7,275,C,51.338365131488224,47.862913979212514,2.5669182565744113,0.7518288946824713,C,811,Correct
2,relearn,7,276,D,41.70534629125236,43.61761355333392,2.085267314562618,0.6851438715313621,C,764,Incorrect
2,relearn,7,277,C,88.10419533007395,51.80898893493809,4.405209766503697,0.8138136951395819,D,831,Incorrect
2,relearn,7,278,B,55.1546336049126,54.33737484885918,2.75773168024563,0.8535294882026538,B,1406,Correct
2,relearn,7,279,D,34.802939457070046,19.96211949256974,1.7401469728535022,0.3135642397396935,A,957,Incorrect
2,relearn,7,280,A,9.159388486050693,68.46229332080307,0.4579694243025347,1.0754031887227224,A,703,Correct
2,relearn,7,281,C,93.58567872290014,50.88178940079733,4.679283936145007,0.7992492789152396,D,2493,Incorrect
2,relearn,7,282,A,29.793315464578512,61.01955070411517,1.4896657732289256,0.9584928610869904,D,91,Incorrect
2,relearn,7,283,B,34.91290854284862,71.67638605691654,1.7456454271424309,1.1258900393613744,D,288,Incorrect
2,relearn,7,284,A,23.00997117817198,76.66844867437896,1.150498558908599,1.2043051755877752,A,958,Correct
2,relearn,7,285,A,9.208465651062772,49.933830559383566,0.46042328255313864,0.7843587762547848,A,715,Correct
2,relearn,7,286,B,40.51756764577736,62.304293834232695,2.025878382288868,0.9786735589836264,B,1632,Correct
2,relearn,7,287,B,59.5521008893036,81.43687631193984,2.97760504446518,1.2792074617644542,D,1182,Incorrect
2,relearn,7,288,B,58.972316419669866,85.10064796474397,2.9486158209834934,1.3367578523088544,C,797,Incorrect
2,relearn,7,289,C,78.82932853383632,42.06586087987114,3.941466426691816,0.6607689975356672,B,845,Incorrect
2,relearn,7,290,A,18.036765948442167,69.19104768211557,0.9018382974221083,1.0868504354615767,A,510,Correct
2,relearn,7,291,C,68.7262257945235,47.40385210139575,3.436311289726175,0.7446179675680099,B,829,Incorrect
2,relearn,7,292,B,31.63650236201969,81.42802717468216,1.5818251181009844,1.2790684598414575,A,877,Incorrect
2,relearn,7,293,C,87.53914163808153,72.14036983224098,4.376957081904077,1.1331782794610952,B,622,Incorrect
2,relearn,7,294,A,27.698751378360257,39.225951882114806,1.384937568918013,0.616159811314593,B,510,Incorrect
2,relearn,7,295,C,87.82483163960896,61.734040587360255,4.391241581980449,0.9697160419283255,C,397,Correct
2,relearn,7,296,A,3.683484580319945,57.390658973719226,0.18417422901599725,0.9014903630825675,A,733,Correct
2,relearn,7,297,B,48.91542378603921,50.06238146792676,2.4457711893019605,0.7863780492042426,B,847,Correct
2,relearn,7,298,D,52.0105190999097,16.341095650055347,2.6005259549954847,0.25668533022911,A,1375,Incorrect
2,relearn,7,299,A,13.888619298065702,65.05310985172768,0.6944309649032852,1.0218518600167874,A,669,Correct
2,relearn,7,300,B,41.247932721456564,77.78982191175052,2.062396636072828,1.2219196652100688,A,2443,Incorrect
2,relearn,7,301,D,26.72451608778958,27.724975165857103,1.3362258043894792,0.4355028915100806,B,449,Incorrect
2,relearn,7,302,D,76.1082949225547,28.05877342398317,3.8054147461277354,0.4407461822876303,C,589,Incorrect
2,relearn,7,303,C,82.58648972876657,69.98328158554312,4.129324486438328,1.0992948165162408,D,716,Incorrect
2,relearn,7,304,D,44.95264087583869,31.735887486660722,2.2476320437919344,0.49850615491622785,D,1329,Correct
2,relearn,7,305,D,73.25447725614438,24.49027369852974,3.6627238628072187,0.3846923196785218,B,1901,Incorrect
2,relearn,7,306,C,93.19782583272297,55.18071486871382,4.659891291636148,0.866776642256922,C,731,Correct
2,relearn,7,307,D,50.58654709468,26.079129151008818,2.529327354734,0.4096500027641436,B,1200,Incorrect
2,relearn,7,308,D,42.901717459923134,32.69972867733061,2.1450858729961566,0.5136461369354067,D,1821,Incorrect
2,relearn,7,309,C,60.45878095257376,69.25949528115912,3.022939047628688,1.087925607833132,C,1852,Correct
2,relearn,7,310,A,4.94401576825954,50.32379718245078,0.247200788412977,0.7904843576456506,A,816,Correct
2,relearn,7,311,A,40.15630256638365,69.7377365261662,2.0078151283191827,1.0954378037429215,B,1341,Incorrect
2,relearn,7,312,D,34.61812105384567,24.551795320927745,1.7309060526922835,0.3856586990633343,C,1148,Incorrect
2,relearn,7,313,A,9.779412265611134,61.78745085068242,0.4889706132805567,0.9705550083827215,A,1182,Correct
2,relearn,7,314,C,64.93311851761341,38.88759355659625,3.2466559258806704,0.6108448911659429,B,1164,Incorrect
2,relearn,7,315,D,45.931026464578096,44.7066331379621,2.296551323228905,0.7022501511647786,C,481,Correct
2,relearn,7,316,A,4.091995116531685,59.72007840892115,0.20459975582658424,0.9380807980063656,A,893,Incorrect
2,relearn,7,317,D,44.14928762542482,48.02748969393441,2.207464381271241,0.7544140439641193,A,303,Incorrect
2,relearn,7,318,B,39.83350014198082,53.60266946475598,1.9916750070990412,0.8419887630163966,B,1437,Incorrect
2,relearn,7,319,C,59.486778662444785,45.69904664134409,2.974338933122239,0.7178389460225195,D,6959,Incorrect
2,relearn,7,320,A,17.06116599381172,48.89428901163678,0.8530582996905861,0.7680296958072713,A,923,Correct
2,relearn,7,321,A,49.373354952375436,56.44855020578802,2.468667747618772,0.8866917531614912,C,686,Incorrect
2,relearn,7,322,A,42.587854059061314,48.42477687043217,2.1293927029530657,0.760654616339373,A,286,Correct
2,relearn,7,323,D,65.58132416761877,3.808916542299521,3.279066208380939,0.05983032113712406,D,382,Incorrect
2,relearn,7,324,C,78.03200859946628,29.83199089185144,3.901600429973314,0.4685998171389905,B,495,Incorrect
2,relearn,7,325,A,47.37506698506731,40.125814520069504,2.3687533492533657,0.6302948205777851,A,589,Correct
2,relearn,7,326,C,83.28107628873232,46.301929298023815,4.164053814436616,0.7273090046485282,B,286,Incorrect
2,relearn,7,327,B,40.61022425981568,58.22285438152109,2.030511212990784,0.9145624579800748,C,540,Correct
2,relearn,7,328,D,43.98854403046079,47.745540593122186,2.199427201523039,0.7499851978451295,A,320,Correct
2,relearn,7,329,A,47.672440575316365,48.2574603789923,2.383622028765818,0.7580264150377134,D,507,Incorrect
2,relearn,7,330,B,35.01905258321967,95.50566277953475,1.7509526291609834,1.5001994428220522,B,334,Correct
2,relearn,7,331,B,71.00684692437932,66.92681640520894,3.550342346218966,1.0512839737337862,A,510,Incorrect
2,relearn,7,332,B,66.658835819104,77.13090824016942,3.3329417909552,1.2115694734601232,D,316,Incorrect
2,relearn,7,333,B,54.524818660165565,52.123392388033004,2.7262409330082784,0.818752333032113,A,957,Incorrect
2,relearn,7,334,C,73.06548119845688,28.88248058517,3.653274059922844,0.4536849441190995,B,364,Incorrect
2,relearn,7,335,D,48.8734703638684,16.11336021708866,2.4436735181934197,0.2531080704132588,A,560,Correct
2,relearn,7,336,B,39.42327910043574,56.433858592372644,1.971163955021787,0.8864609778376156,A,698,Correct
2,relearn,7,337,B,61.38016922252179,98.5369376661705,3.06900846112609,1.5478145973963833,B,415,Incorrect
2,relearn,7,338,D,47.83055667239386,20.741943282305435,2.3915278336196932,0.32581368318433457,B,766,Incorrect
2,relearn,7,339,A,13.273328912794806,61.55168445084176,0.6636664456397403,0.9668515984342079,A,654,Correct
2,relearn,7,340,A,30.58214204679198,63.75450092987076,1.5291071023395988,1.001453358772828,B,1037,Incorrect
2,relearn,7,341,C,61.65383169966608,40.94116003894676,3.082691584983304,0.6431022380389958,A,943,Incorrect
2,relearn,7,342,D,44.38228641284,48.36406018256771,2.2191143206420003,0.7597008808366468,A,942,Incorrect
2,relearn,7,343,C,94.903154233885,48.363568029036124,4.74515771169425,0.7596931501070505,C,1628,Correct
2,relearn,7,344,B,66.14121728585897,55.653184991913776,3.307060864292948,0.8741981855973503,A,797,Incorrect
2,relearn,7,345,A,10.717140936005833,42.59143125423624,0.5358570468002917,0.6690246376709164,A,1005,Correct
2,relearn,7,346,A,24.845723660992164,48.01373229775562,1.2422861830496081,0.75419794329028,A,991,Incorrect
2,relearn,7,347,A,10.702888841996847,65.03685644456843,0.5351444420998424,1.0215965520941508,A,1116,Correct
2,relearn,7,348,D,34.93587781638776,39.18340433360008,1.7467938908193879,0.6154914759853825,A,1357,Incorrect
2,relearn,7,349,D,57.38145164258866,13.12491632368042,2.869072582129433,0.2061657035072758,A,847,Incorrect
2,relearn,7,350,B,53.635412605176846,77.15740938948886,2.6817706302588427,1.2119857525401916,A,1965,Incorrect
2,relearn,7,351,B,51.68308828055072,75.90498324722394,2.5841544140275357,1.1923126887016753,B,798,Correct
2,relearn,7,352,D,58.96006210168342,21.840352143413323,2.948003105084171,0.34306744922780696,B,764,Incorrect
2,relearn,7,353,C,97.34144611917463,60.52138294943742,4.8670723059587315,0.9506676602952359,C,302,Correct
2,relearn,7,354,B,60.89912963917545,80.69369423854789,3.0449564819587724,1.2675335850542153,A,556,Incorrect
2,relearn,7,355,D,52.584057866211005,49.012029980385385,2.6292028933105502,0.769879166619507,A,2190,Incorrect
2,relearn,7,356,C,71.3031790508803,62.26787137085926,3.5651589525440155,0.9781014362668282,C,654,Incorrect
2,relearn,7,357,B,62.6739089213009,55.60057909572797,3.1336954460650452,0.873371854112386,C,786,Incorrect
2,relearn,7,358,C,79.79573362826578,71.90616668953476,3.989786681413289,1.1294994250982275,A,2330,Correct
2,relearn,7,359,A,4.7971010422179035,59.36528652405636,0.23985505211089517,0.932507740111143,A,637,Incorrect
2,relearn,7,360,C,78.65950527202182,28.794935141950006,3.932975263601091,0.45230978351272355,B,270,Incorrect
2,relearn,7,361,C,61.34728157334881,56.179322522131066,3.0673640786674405,0.8824627345958928,C,302,Incorrect
2,relearn,7,362,B,56.51086988165669,62.93785490051412,2.8255434940828343,0.9886255129407775,A,286,Correct
2,relearn,7,363,C,94.48122499805993,66.14975420064411,4.724061249902997,1.0390779091675704,B,316,Correct
2,relearn,7,364,D,43.08910619760538,14.575774032571873,2.154455309880269,0.2289557231055634,D,351,Correct
2,relearn,7,365,D,34.12140979289276,45.5100246884936,1.7060704896446381,0.7148697961303081,C,333,Incorrect
2,relearn,7,366,C,84.3293055779522,28.536245798035388,4.21646527889761,0.4482463008007028,A,655,Incorrect
2,relearn,7,367,D,67.53467080828233,6.162453415799334,3.3767335404141163,0.09679959189582256,B,365,Incorrect
2,relearn,7,368,C,74.75335865242803,37.71705367521587,3.7376679326214015,0.5924580937055504,A,800,Correct
2,relearn,7,369,D,27.52431966101766,24.451481430640033,1.3762159830508829,0.3840829721594299,A,587,Incorrect
2,relearn,7,370,A,22.83131392572946,66.27855952282955,1.141565696286473,1.0411011784371758,A,1133,Incorrect
2,relearn,7,371,B,32.120617670059566,88.84453942351244,1.6060308835029784,1.3955667618223773,A,1519,Incorrect
2,relearn,7,372,A,19.48593263007027,70.62990820340966,0.9742966315035134,1.1094520036777662,A,1181,Incorrect
2,relearn,7,373,A,44.68180604682012,53.30359535096868,2.234090302341006,0.8372909178226313,A,671,Correct
2,relearn,7,374,B,52.111266029537056,52.75160076315426,2.605563301476853,0.8286202071131358,A,4189,Incorrect
2,relearn,7,375,D,64.2451163385125,11.958529088943841,3.2122558169256252,0.18784413566782907,A,651,Incorrect
2,relearn,7,376,C,69.81881216603558,33.39125758870205,3.490940608301779,0.5245086476739539,A,495,Incorrect
2,relearn,7,377,B,65.7948268447818,95.21121357496777,3.28974134223909,1.4955742455324377,C,303,Incorrect
2,relearn,7,378,A,49.19031502237556,51.91762471332815,2.459515751118778,0.815520141956118,B,925,Incorrect
2,relearn,7,379,A,48.67500687487505,41.69666452306997,2.433750343743753,0.6549696747243738,A,380,Correct
2,relearn,7,380,C,98.04165482438145,46.758797581175614,4.902082741219073,0.7344854748585675,A,1519,Incorrect
2,relearn,7,381,C,69.61467086448489,45.58089671071085,3.4807335432242446,0.7159830512520219,A,1852,Incorrect
2,relearn,7,382,C,62.43218886604254,55.272305549778004,3.1216094433021273,0.8682153453107647,B,125,Incorrect
2,relearn,7,383,A,4.220896326580295,55.417315089023454,0.21104481632901476,0.8704931498267344,A,865,Incorrect
2,relearn,7,384,A,9.48245043048437,52.59011909988191,0.4741225215242185,0.8260836590780064,C,3436,Incorrect
2,relearn,7,385,B,36.181814611854875,90.53331049515641,1.8090907305927437,1.4220939157837356,A,6621,Incorrect
2,relearn,7,386,D,43.93758797910108,16.29977371608814,2.196879398955054,0.2560362468081925,A,3070,Incorrect
2,relearn,7,387,B,30.318922505419035,87.11755724063242,1.5159461252709516,1.3684393891292956,A,6445,Correct
2,relearn,7,388,A,39.76150936107628,58.8425191622501,1.9880754680538137,0.9242961295942076,A,2828,Correct
2,relearn,7,389,D,49.8677552589126,5.871819207355546,2.49338776294563,0.09223432042517814,C,15,Incorrect
2,relearn,7,390,D,45.69992671432308,-1.027792643007551,2.284996335716154,-0.016144529083430795,A,829,Incorrect
2,relearn,7,391,C,71.64190113265927,57.841941830615745,3.5820950566329635,0.9085790976221529,D,509,Incorrect
2,relearn,7,392,D,62.38220908562606,41.2847547770635,3.1191104542813033,0.648499411564394,A,1358,Incorrect
2,relearn,7,393,B,45.40862662665879,64.6278307281199,2.270431331332939,1.015171591164531,A,670,Incorrect
2,relearn,7,394,D,72.47161651429278,36.08620960091612,3.623580825714639,0.5668408548906977,C,2205,Incorrect
2,relearn,7,395,A,40.002305284211005,46.58022715702584,2.00011526421055,0.7316804971952808,D,876,Incorrect
2,relearn,7,396,B,66.97304947977717,82.58059516206563,3.3486524739888583,1.2971729554510911,C,1470,Incorrect
2,relearn,7,397,C,95.01233327999375,48.77250461131329,4.750616663999688,0.7661167109203807,B,1854,Incorrect
2,relearn,7,398,A,10.690095372044699,39.22777449601138,0.5345047686022348,0.616188440866732,A,1022,Correct
2,relearn,7,399,C,99.1545621901605,51.5859741331998,4.957728109508025,0.8103105868256679,A,14,Incorrect
2,relearn,7,400,D,56.442832153660376,27.790781940335858,2.822141607683019,0.4365365819063752,B,1181,Correct
2,relearn,7,401,A,28.555597123035433,46.57003580014756,1.4277798561517716,0.7315204117357861,C,1501,Incorrect
2,relearn,7,402,A,2.4850367739440564,38.33577711495344,0.12425183869720283,0.6021769787699671,D,574,Incorrect
2,relearn,7,403,C,75.33500266924693,40.05012261627283,3.7667501334623466,0.6291058549332659,A,412,Incorrect
2,relearn,7,404,D,30.280165427311644,8.228878623925944,1.5140082713655822,0.12925892316103915,A,367,Incorrect
2,relearn,7,405,A,38.0647514308894,45.96445463620239,1.90323757154447,0.7220079650567736,D,366,Incorrect
2,relearn,7,406,B,56.18433588065225,96.31672670286886,2.8092167940326123,1.5129396051377433,C,381,Incorrect
2,relearn,7,407,C,93.09972932582538,52.42022820895821,4.654986466291269,0.8234150192038178,B,575,Incorrect
2,relearn,7,408,D,67.55195616014001,39.58602131716073,3.377597808007,0.6218157687742055,A,379,Incorrect
2,relearn,7,409,D,35.57372158811066,45.19979458549828,1.7786860794055328,0.7099967130678455,B,303,Incorrect
2,relearn,7,410,C,66.40931098623491,31.530776156474506,3.320465549311746,0.49528427367582256,D,412,Incorrect
2,relearn,7,411,D,32.44163979444641,11.942754997198138,1.6220819897223206,0.18759635681410233,D,544,Incorrect
2,relearn,7,412,D,39.91597170563051,11.465512795625383,1.9957985852815257,0.1800998538418824,C,302,Incorrect
2,relearn,7,413,D,48.67520900296795,6.58982244966618,2.4337604501483976,0.10351268898166183,B,2142,Incorrect
2,relearn,7,414,D,33.4263996468345,46.065675247540995,1.671319982341725,0.7235979347016398,C,1806,Incorrect
2,relearn,7,415,C,63.999310322633406,49.708487700282596,3.19996551613167,0.7808190989013319,D,2382,Incorrect
2,relearn,7,416,C,57.19194946686375,44.75318802842624,2.8595974733431877,0.7029814336741328,D,237,Incorrect
2,relearn,7,417,D,57.91016010575261,0.3739201564446688,2.8955080052876303,0.005873524082578589,D,2524,Incorrect
2,relearn,7,418,A,36.98064751447225,56.86117842353657,1.8490323757236127,0.8931733020492049,D,2492,Incorrect
2,relearn,7,419,A,18.128785906645938,60.13597281637059,0.9064392953322968,0.9446136520819267,D,1791,Incorrect
2,relearn,7,420,D,37.23351164084833,14.483713180422496,1.8616755820424162,0.22750963462158486,D,2494,Incorrect
2,relearn,7,421,B,34.545707666665564,57.631892267328965,1.7272853833332784,0.9052796467975953,D,1022,Correct
2,relearn,7,422,C,77.79746120800161,66.45362750879613,3.88987306040008,1.0438511399301327,D,3037,Correct
2,relearn,7,423,C,96.98804658183595,35.10838284264657,4.849402329091797,0.5514811880893821,D,112,Correct
2,relearn,7,424,B,58.93069246247601,86.78238275842763,2.9465346231238003,1.3631744806744688,C,667,Incorrect
2,relearn,7,425,D,75.08339771358004,28.240296444137844,3.7541698856790022,0.443597539220507,A,801,Incorrect
2,relearn,7,426,B,25.226631565912573,78.32840449768722,1.2613315782956287,1.2303797006867194,A,2555,Incorrect
2,relearn,7,427,B,32.72496535491329,80.63369295439071,1.6362482677456642,1.2665910870866446,A,1856,Correct
2,relearn,7,428,D,31.093457794023898,42.31994888106132,1.5546728897011948,0.6647602025251892,A,687,Incorrect
2,relearn,7,429,B,50.0089457925697,63.851565556854254,2.500447289628485,1.0029780463681022,B,265,Correct
2,relearn,7,430,D,39.83596184664891,46.523455430213204,1.9917980923324452,0.7307887289958499,B,621,Incorrect
2,relearn,7,431,C,61.16047278321517,27.858113818262197,3.058023639160758,0.43759422857160407,D,800,Correct
2,relearn,7,432,D,43.4213479993895,28.19522941348372,2.171067399969475,0.4428896279583966,D,1037,Correct
2,relearn,7,433,B,35.89108769154019,84.75875788714067,1.7945543845770096,1.3313874555281855,D,1355,Correct
2,relearn,7,434,C,74.59921397358184,44.66152608888087,3.729960698679092,0.7015416112946851,D,751,Correct
2,relearn,7,435,A,49.35028589701551,56.11959101909984,2.4675142948507753,0.881524474340339,A,255,Incorrect
2,relearn,7,436,B,25.997740388832003,73.15046999857552,1.2998870194416003,1.1490448957708272,A,732,Incorrect
2,relearn,7,437,D,34.910782826598066,6.442702130411806,1.745539141329903,0.10120172841084521,A,1630,Incorrect
2,relearn,7,438,D,33.41303384594592,39.121265098070026,1.6706516922972958,0.6145153951561778,B,493,Incorrect
2,relearn,7,439,D,66.53216189386613,23.359849552588248,3.3266080946933068,0.3669356587168703,A,1390,Incorrect
2,relearn,7,440,C,72.99134706468854,38.73837348761225,3.649567353234427,0.6085009478035014,B,2016,Incorrect
2,relearn,7,441,D,72.08561790530936,17.755241207011615,3.6042808952654686,0.2788986766933123,B,811,Incorrect
2,relearn,7,442,D,39.421540903177714,27.734342279710564,1.9710770451588857,0.43565002979041756,D,542,Incorrect
2,relearn,7,443,D,72.02223561053952,27.668512830532368,3.601111780526976,0.4346159832207771,D,2431,Incorrect
2,relearn,7,444,C,82.09739671968741,68.53506717922528,4.1048698359843705,1.0765463178176853,D,1790,Incorrect
2,relearn,7,445,A,13.384353465605681,41.25964398707791,0.6692176732802841,0.6481049721976713,B,350,Incorrect
2,relearn,7,446,C,69.62337661977918,75.04401552459548,3.481168830988959,1.1787886393397378,B,620,Correct
2,relearn,7,447,B,61.556528368627355,74.15149018796743,3.0778264184313677,1.1647688841362704,A,845,Incorrect
2,relearn,7,448,D,54.8016312114315,29.494791467825983,2.7400815605715754,0.46330310097242505,B,1663,Correct
2,relearn,7,449,D,68.33013626633795,30.43034929728647,3.4165068133168974,0.4779988089926325,B,1883,Incorrect
2,relearn,7,450,B,34.587335983804,55.546603505797776,1.7293667991902,0.8725240075283967,B,1373,Incorrect
2,relearn,7,451,D,42.19497369782229,2.4244417692206817,2.1097486848911147,0.03808304225619966,A,336,Incorrect
2,relearn,7,452,A,4.714643396697799,43.85623017264201,0.23573216983488993,0.6888920526225757,A,1388,Correct
2,relearn,7,453,D,31.50856258205922,15.080758120535673,1.575428129102961,0.2368879946101974,A,925,Correct
2,relearn,7,454,A,8.545077500869048,50.22404682889091,0.4272538750434524,0.7889174827559673,A,1549,Correct
2,relearn,7,455,B,46.9524218684617,74.64588291405765,2.347621093423085,1.172534786917637,A,348,Incorrect
2,relearn,7,456,B,34.74025643180638,64.64650774125508,1.7370128215903191,1.0154649690008133,A,1073,Correct
2,relearn,7,457,A,5.52385047223439,45.16891682550745,0.2761925236117195,0.7095116863481131,A,862,Correct
2,relearn,7,458,D,60.89579589893595,35.71804290596506,3.044789794946798,0.5610577059699244,B,1678,Incorrect
2,relearn,7,459,D,33.96911740617614,43.443921798506366,1.6984558703088068,0.6824155278265853,A,1166,Incorrect
2,relearn,7,460,A,36.792756655298675,53.1737395373948,1.8396378327649336,0.8352511474728832,A,2957,Incorrect
2,relearn,7,461,A,31.714872588631213,58.685930859746335,1.5857436294315608,0.9218364462902882,A,492,Correct
2,relearn,7,462,C,63.54915470476572,64.66607034855852,3.177457735238286,1.015772257717761,A,495,Incorrect
2,relearn,7,463,B,65.18926860950705,54.36935918840245,3.2594634304753525,0.8540318970333494,A,254,Incorrect
2,relearn,7,464,D,72.43544153221602,27.42223535661178,3.6217720766108012,0.4307474657067092,B,204,Incorrect
2,relearn,7,465,C,52.49632762645871,44.305685143228445,2.6248163813229355,0.6959520747911446,B,687,Incorrect
2,relearn,7,466,C,97.68874241773209,41.626757315242955,4.884437120886605,0.6538715748716623,C,302,Incorrect
2,relearn,7,467,D,24.4486153770503,16.989151665425638,1.222430768852515,0.2668649703141199,D,397,Incorrect
2,relearn,7,468,B,52.40020044174754,57.12054198355716,2.620010022087377,0.8972473753230527,D,350,Incorrect
2,relearn,7,469,D,37.001623653751636,40.048240407810205,1.8500811826875818,0.6290762892718722,A,413,Incorrect
2,relearn,7,470,A,14.732670183819106,63.599405801702716,0.7366335091909554,0.9990171301965266,B,399,Incorrect
2,relearn,7,471,A,44.41416190448916,33.93886071785393,2.2207080952244582,0.5331103775120856,B,414,Correct
2,relearn,7,472,A,24.143698455586684,74.28146422331972,1.2071849227793343,1.1668105115093712,C,381,Incorrect
2,relearn,7,473,C,71.67182493611712,38.048561717458675,3.583591246805856,0.59766540985613,D,157,Correct
2,relearn,7,474,A,28.212270166158152,63.23279914729208,1.4106135083079077,0.9932584863352586,A,431,Incorrect
2,relearn,7,475,C,101.5443198696193,46.99442492236337,5.077215993480965,0.7381867004788693,B,315,Incorrect
2,relearn,7,476,A,29.134234492518875,47.55981530346575,1.4567117246259438,0.7470678318172771,A,273,Incorrect
2,relearn,7,477,B,35.79728875612382,87.79803801527457,1.7898644378061908,1.3791283561419196,A,171,Incorrect
2,relearn,7,478,A,18.412626897840575,73.72953780766245,0.9206313448920287,1.1581408716456163,C,269,Correct
2,relearn,7,479,B,59.30432396902536,70.74975761022627,2.9652161984512677,1.111334593757727,D,270,Incorrect
2,relearn,7,480,D,35.521200362929825,29.801792357777742,1.7760600181464912,0.468125459675015,A,365,Incorrect
2,relearn,7,481,C,92.49039887372058,53.13071747023018,4.624519943686028,0.8345753584221501,B,1519,Incorrect
2,relearn,7,482,A,22.298601048066427,68.19449592669179,1.1149300524033214,1.07119663709277,C,702,Incorrect
2,relearn,7,483,C,79.13164773308321,65.10992522447762,3.9565823866541607,1.0227443138049983,A,316,Incorrect
2,relearn,7,484,B,32.35420293309191,61.57049089582006,1.6177101466545958,0.9671470093811276,A,63,Correct
2,relearn,7,485,A,20.319920608125077,28.058725098104826,1.0159960304062539,0.4407454231865084,A,636,Correct
2,relearn,7,486,A,38.80701394808022,45.61470604818797,1.940350697404011,0.7165141270832263,B,462,Incorrect
2,relearn,7,487,C,79.84583886984649,39.870511650370915,3.9922919434923245,0.6262845324783576,B,685,Correct
2,relearn,7,488,D,57.30799143449927,24.250743584536032,2.865399571724964,0.38092978944634104,B,414,Incorrect
2,relearn,7,489,A,29.789412445520387,63.51912827332984,1.4894706222760195,0.9977561337296036,A,384,Correct
2,relearn,7,490,D,45.378643437252286,38.55893968997128,2.2689321718626143,0.6056824083011283,A,651,Incorrect
2,relearn,7,491,A,34.1767178984678,42.2366604742707,1.7088358949233902,0.663451911290676,A,1711,Incorrect
2,relearn,7,492,D,36.775056969139996,27.417411896587588,1.8387528484569997,0.4306716989738248,B,61,Incorrect
2,relearn,7,493,C,97.14432499986282,49.62217065889019,4.857216249993141,0.7794632339857421,C,112,Correct
2,relearn,7,494,D,33.24154050713828,19.00343741960911,1.662077025356914,0.2985052969519868,D,395,Correct
2,relearn,7,495,B,30.03333023034923,60.95750004735141,1.5016665115174614,0.9575181716497932,A,158,Incorrect
2,relearn,7,496,B,42.93299455971982,99.87500015385814,2.146649727985991,1.568832833803201,C,301,Incorrect
2,relearn,7,497,C,86.53634101058361,59.39258785853764,4.326817050529181,0.9329365884703408,B,446,Correct
2,relearn,7,498,B,53.889398355352796,82.27456312620009,2.69446991776764,1.2923658154728996,C,734,Correct
2,relearn,7,499,C,69.90371646447211,66.78380744842194,3.4951858232236055,1.0490375942935883,C,511,Correct
2,relearn,7,500,C,49.71203546599328,55.30114299328815,2.485601773299664,0.8686683228141635,C,620,Incorrect
2,relearn,7,501,C,65.03540340563914,31.047703628821537,3.2517701702819575,0.48769618815569443,C,2000,Correct
2,relearn,7,502,C,53.546133085402644,57.58100978278646,2.677306654270132,0.9044803865994199,C,397,Correct
2,relearn,7,503,B,53.600762526590124,49.1145346020922,2.680038126329506,0.7714893054520726,C,508,Incorrect
2,relearn,7,504,C,67.29547846662922,50.5163898145505,3.364773923331461,0.7935095956363505,C,494,Correct
2,relearn,7,505,A,23.902989846370357,52.29594663491453,1.195149492318518,0.8214628088038568,D,351,Incorrect
2,relearn,7,506,C,63.18782759817805,40.99902515473755,3.159391379908903,0.6440111811523331,A,348,Incorrect
2,relearn,7,507,B,53.379227306085724,60.96787632983927,2.6689613653042863,0.9576811619139705,B,2987,Correct
2,relearn,7,508,B,58.967270469358425,79.35185336460698,2.948363523467921,1.246455997894919,D,1200,Incorrect
2,relearn,7,509,B,38.778424664851116,60.71727967097273,1.9389212332425558,0.953744798801424,D,94,Correct
2,relearn,7,510,B,49.26309173535753,52.64283911432506,2.4631545867678764,0.826911783128365,A,556,Incorrect
2,relearn,7,511,B,63.46378163686743,73.00813127636746,3.1731890818433715,1.1468090443507761,A,397,Incorrect
2,relearn,7,512,B,49.4595347872437,97.81987345830271,2.472976739362185,1.536550979158435,B,1167,Correct
2,relearn,7,513,D,55.257017010272534,14.352725968730404,2.762850850513627,0.22545209231175442,A,1470,Correct
2,relearn,7,514,D,25.119964506049808,24.418546458850074,1.2559982253024904,0.38356563083232226,A,1326,Incorrect
2,relearn,7,515,C,77.93529368966983,55.315325945498614,3.896764684483492,0.8688911081065167,B,876,Correct
2,relearn,7,516,A,21.127666338620326,31.576054083609325,1.0563833169310164,0.49599549769210516,A,317,Incorrect
2,relearn,7,517,C,94.9228390360578,53.38118266205147,4.74614195180289,0.8385096564551786,B,2190,Incorrect
2,relearn,7,518,D,37.377928674785935,25.64615105322838,1.8688964337392968,0.402848798708382,B,669,Incorrect
2,relearn,7,519,C,92.14947613369363,57.880761054992035,4.607473806684681,0.909188868572746,A,1342,Incorrect
2,relearn,7,520,B,32.46576290115291,59.16975523648612,1.6232881450576455,0.929436341828255,A,285,Incorrect
2,relearn,7,521,C,49.01036900443448,51.31714873813407,2.450518450221724,0.8060878873944837,B,990,Incorrect
2,relearn,7,522,B,55.41722160851089,73.8115887999008,2.770861080425545,1.159429725617795,A,2509,Incorrect
2,relearn,7,523,C,86.90764937314557,36.11737926267635,4.345382468657278,0.5673304667927018,A,702,Incorrect
2,relearn,7,524,B,42.370952831220706,64.97046683232603,2.1185476415610354,1.0205537065036738,D,317,Incorrect
2,relearn,7,525,D,45.82802443243614,2.5127588473281826,2.2914012216218067,0.039470323675044876,B,653,Incorrect
2,relearn,7,526,B,42.173220369036656,79.07218494538517,2.1086610184518326,1.2420629766385776,B,160,Correct
2,relearn,7,527,A,14.398709221612329,63.38070468618674,0.7199354610806165,0.9955817811073421,B,25,Correct
2,relearn,7,528,D,70.05697334678518,29.750044755415335,3.502848667339259,0.4673126102379018,B,562,Correct
2,relearn,7,529,D,40.86925783919639,18.032470536069447,2.0434628919598197,0.2832533848109508,B,682,Incorrect
2,relearn,7,530,C,64.64751272281671,25.63601771330241,3.232375636140836,0.40268962457704327,B,607,Incorrect
2,relearn,7,531,C,82.0841932566999,55.35722833957582,4.104209662834995,0.8695493093735204,A,92,Incorrect
2,relearn,7,532,B,61.78597370248109,67.75829983472781,3.0892986851240547,1.064344884902577,A,95,Incorrect
2,relearn,7,533,A,40.903427993210734,56.61179122752526,2.0451713996605365,0.8892559371347624,A,2239,Incorrect
2,relearn,7,534,A,31.130648070587142,26.977952101939575,1.556532403529357,0.42376868066175344,B,380,Incorrect
2,relearn,7,535,A,31.150038173966987,32.18510441644097,1.5575019086983495,0.5055624379485568,C,1552,Incorrect
2,relearn,7,536,B,50.02238537958585,70.26310979570022,2.5011192689792923,1.1036903477627242,A,1132,Incorrect
2,relearn,7,537,D,54.36653010501816,49.144959671568124,2.718326505250908,0.7719672213258254,C,1887,Incorrect
2,relearn,7,538,D,39.51258450251774,24.731334233040144,1.975629225125887,0.38847888969996347,B,747,Incorrect
2,relearn,7,539,D,65.74706303671158,20.650798318710432,3.2873531518355787,0.3243819814441258,B,1056,Incorrect
2,relearn,7,540,C,90.92045250108833,39.45794481893523,4.546022625054417,0.6198039478445918,A,1387,Incorrect
2,relearn,7,541,C,81.00661076418136,52.56108916630869,4.050330538209068,0.8256276579477673,A,798,Incorrect
2,relearn,7,542,C,67.87619483261253,55.89124235857736,3.3938097416306268,0.8779375819685664,B,1596,Incorrect
2,relearn,7,543,C,69.34532831888798,51.41228267157009,3.4672664159443993,0.807582247726432,B,1727,Incorrect
2,relearn,7,544,D,49.8443245601584,5.528757801456901,2.4922162280079196,0.08684552446267128,C,397,Incorrect
2,relearn,7,545,D,50.02309081988234,29.028495019482794,2.5011545409941167,0.45597853348987516,B,48,Incorrect
2,relearn,7,546,B,28.653475096573395,90.73749557755289,1.4326737548286699,1.4253012475578826,B,1870,Correct
2,relearn,7,547,C,62.43300484547664,55.12435249974687,3.121650242273832,0.8658913042354945,C,763,Correct
2,relearn,7,548,D,29.555784010050782,20.3102395588284,1.477789200502539,0.31903249695332053,D,464,Incorrect
2,relearn,7,549,B,41.252954441311786,59.38469557536612,2.062647722065589,0.9328126167761824,B,461,Correct
2,relearn,7,550,A,47.82602778945497,54.97477707863239,2.3913013894727486,0.8635417790148403,B,620,Incorrect
2,relearn,7,551,B,50.43821799754376,51.15543630913683,2.521910899877188,0.8035477144998241,B,207,Correct
2,relearn,7,552,B,59.11130222544004,86.65775119389272,2.9555651112720023,1.3612167726367272,A,1022,Incorrect
2,relearn,7,553,B,66.3470576903868,60.22081762752161,3.31735288451934,0.9459463912589631,A,206,Incorrect
2,relearn,7,554,D,54.068111570323104,39.1905841514284,2.7034055785161555,0.6156042563001003,A,940,Incorrect
2,relearn,7,555,D,33.021726786780135,26.994702996833997,1.6510863393390067,0.4240318031034603,B,302,Incorrect
2,relearn,7,556,C,55.55006907219895,46.11981394462996,2.777503453609947,0.7244483433668879,C,318,Incorrect
2,relearn,7,557,C,71.18046935071659,39.83182477868114,3.5590234675358294,0.6256768405189027,D,272,Incorrect
2,relearn,7,558,B,41.26795017894176,95.54889287248461,2.063397508947088,1.500878499534179,D,1099,Incorrect
2,relearn,7,559,A,42.36926349654246,58.96150075402314,2.1184631748271228,0.9261650880673407,D,1071,Incorrect
2,relearn,7,560,B,44.41541509555218,79.0720027454415,2.220770754777609,1.2420601146485548,B,683,Incorrect
2,relearn,7,561,D,47.28477123539346,24.590435356154376,2.364238561769673,0.38626565531734647,B,527,Incorrect
2,relearn,7,562,A,15.466961546927928,68.30737239155977,0.7733480773463964,1.0729696964567321,C,1611,Correct
2,relearn,7,563,A,7.02011217852975,39.7318475109664,0.3510056089264875,0.6241064012700098,C,430,Incorrect
2,relearn,7,564,A,36.193736092925285,27.390934647603903,1.8096868046462644,0.4302557953193527,D,494,Incorrect
2,relearn,7,565,B,69.5546168690955,59.04994478372681,3.477730843454775,0.9275543636371952,D,875,Incorrect
2,relearn,7,566,A,10.961245377011515,44.08324911661767,0.5480622688505757,0.6924580578556742,C,127,Incorrect
2,relearn,7,567,C,66.83251077383127,38.738503042461794,3.3416255386915634,0.608502982846319,D,459,Incorrect
2,relearn,7,568,B,58.7436208891049,74.32547498371733,2.9371810444552455,1.1675018309170915,C,334,Correct
2,relearn,7,569,C,75.53426933338552,57.97316615588081,3.776713466669276,0.910640364503278,C,464,Incorrect
2,relearn,7,570,B,49.355296397914195,48.41474281751597,2.46776481989571,0.7604970018047368,C,203,Incorrect
2,relearn,7,571,A,5.077955045818197,50.9335672687804,0.25389775229090983,0.8000626037636102,C,511,Correct
2,relearn,7,572,D,53.10604577910382,15.303195598002453,2.6553022889551916,0.24038203433566083,C,557,Incorrect
2,relearn,7,573,D,72.20726670454971,17.15260714357635,3.6103633352274858,0.26943252296085635,C,1775,Incorrect
2,relearn,7,574,A,24.15505048906799,42.75161589365057,1.2077525244533995,0.6715408121029265,C,685,Correct
2,relearn,7,575,A,44.507953990260845,48.927487772527925,2.2253976995130422,0.7685511807238907,C,95,Incorrect
2,relearn,7,576,D,49.34927880724898,18.612598727614248,2.467463940362449,0.2923660171344382,A,28,Incorrect
2,relearn,7,577,C,95.13969632270977,50.80529786847645,4.756984816135488,0.7980477527352341,C,156,Correct
2,relearn,7,578,C,66.30943834811853,63.44662910249326,3.315471917405927,0.996617319417146,B,845,Incorrect
2,relearn,7,579,C,82.33093017846899,74.40461837600584,4.11654650892345,1.1687450124160603,A,1310,Incorrect
2,relearn,7,580,B,38.11871118808598,73.05955245598216,1.905935559404299,1.1476167663513586,B,1585,Incorrect
2,relearn,7,581,B,63.892243664476794,86.12748859714159,3.1946121832238394,1.3528874272445937,B,315,Incorrect
2,relearn,7,582,C,85.03042256842883,65.42214910090928,4.251521128421442,1.0276487149873632,D,494,Correct
2,relearn,7,583,B,46.42359594372838,66.57803651883188,2.321179797186419,1.045805352089976,D,699,Incorrect
2,relearn,7,584,A,-0.06832598789721445,58.226226998208155,-0.0034162993948607225,0.914615434919112,B,303,Incorrect
2,relearn,7,585,A,40.92772399995777,38.49493596852545,2.0463861999978885,0.6046770401956453,A,410,Correct
2,relearn,7,586,B,63.28043600110016,84.62431533498258,3.1640218000550084,1.3292756368572367,A,288,Incorrect
2,relearn,7,587,C,75.37212172581017,55.83410157296647,3.768606086290509,0.8770400166070889,B,734,Incorrect
2,relearn,7,588,D,65.73376829255754,33.257856870574194,3.286688414627877,0.5224131940936835,D,844,Incorrect
2,relearn,7,589,B,40.806416139354425,70.41384826687184,2.0403208069677214,1.1060581421309548,C,382,Incorrect
2,relearn,7,590,C,51.20505613625377,52.89884167265109,2.560252806812689,0.8309330619110513,D,2798,Incorrect
2,relearn,7,591,B,32.404061072639955,66.68124820076203,1.6202030536319978,1.047426597398558,D,332,Incorrect
2,relearn,7,592,B,45.35005504194851,80.47672764199204,2.2675027520974256,1.2641254817251442,C,383,Correct
2,relearn,7,593,D,63.947248819921825,7.10654037023572,3.1973624409960912,0.11162927509785914,D,555,Correct
2,relearn,7,594,C,66.18494542164655,43.76757875996798,3.3092472710823273,0.6874995194886403,C,15,Incorrect
2,relearn,7,595,B,37.744301052454006,53.40127924786364,1.8872150526227003,0.8388253328869275,A,1070,Incorrect
2,relearn,7,596,B,28.80223255205724,84.08613360819643,1.440111627602862,1.3208218980613986,B,207,Incorrect
2,relearn,7,597,C,55.76204487206152,34.609088131114,2.7881022436030762,0.5436382851007472,C,60,Incorrect
2,relearn,7,598,D,49.79419940436904,16.095434005013615,2.4897099702184518,0.25282648613245057,C,317,Incorrect
2,relearn,7,599,C,66.3816281051121,39.77239640731202,3.319081405255605,0.6247433418443628,A,287,Incorrect
2,relearn,7,600,A,39.260679569080324,61.94535162064984,1.963033978454016,0.9730353078773506,B,172,Incorrect
2,relearn,7,601,B,43.31332935355185,80.93408491068487,2.1656664676775925,1.2713096329021008,B,1256,Correct
2,relearn,7,602,D,44.50268498124904,27.039231251129085,2.225134249062452,0.4247312512863134,C,478,Incorrect
2,relearn,7,603,A,24.769091869626838,38.58943863118793,1.2384545934813418,0.6061614845494708,D,238,Incorrect
2,relearn,7,604,D,43.423857190818836,24.78744268847918,2.171192859540942,0.3893602392570211,A,268,Incorrect
2,relearn,7,605,C,68.9261338752681,31.427498477286054,3.4463066937634053,0.4936619916847314,C,365,Correct
2,relearn,7,606,A,15.125240994652966,67.8805169053083,0.7562620497326483,1.0662646661579716,C,333,Incorrect
2,relearn,7,607,D,29.796052499896376,17.778179107118113,1.4898026249948189,0.27925898438562907,A,287,Incorrect
2,relearn,7,608,A,18.390936909737896,49.79548616528813,0.9195468454868947,0.7821856675940069,A,767,Correct
2,relearn,7,609,A,44.94038792205059,49.2784237731704,2.2470193961025298,0.7740636705313837,B,1486,Incorrect
2,relearn,7,610,D,39.52464891189887,6.996193292118633,1.9762324455949436,0.10989594724807043,C,286,Incorrect
2,relearn,7,611,C,75.85500587221055,66.7629783586146,3.7927502936105277,1.0487104117159898,D,316,Incorrect
2,relearn,7,612,D,46.84838977014548,44.45709435031003,2.3424194885072738,0.6983304050544115,D,510,Correct
2,relearn,7,613,A,20.856506119870264,46.762112109416066,1.042825305993513,0.7345375393464191,C,4445,Incorrect
2,relearn,7,614,B,61.507700969011495,58.25049640563647,3.0753850484505745,0.9149966578795309,D,477,Incorrect
2,relearn,7,615,A,37.9394022959773,39.34914035370656,1.896970114798865,0.6180948513013911,A,2912,Correct
2,relearn,7,616,C,85.99024072344172,73.45340563724525,4.299512036172086,1.153803397655604,B,764,Incorrect
2,relearn,7,617,C,57.29838515379501,37.14271597301531,2.864919257689751,0.5834364181759857,C,250,Correct
2,relearn,7,618,D,38.06852104468942,47.84504238299546,1.903426052234471,0.751548168305554,C,337,Incorrect
2,relearn,7,619,D,73.17312734751658,21.400119527734276,3.658656367375829,0.3361522914713674,B,319,Incorrect
2,relearn,7,620,C,69.65608501369586,70.83886025201839,3.482804250684793,1.1127342147820751,B,508,Incorrect
2,relearn,7,621,A,19.838461914663736,37.17859378177096,0.9919230957331868,0.583999985478054,D,748,Incorrect
2,relearn,7,622,A,18.095804324043964,57.48825826786453,0.9047902162021982,0.9030234492099796,B,126,Incorrect
2,relearn,7,623,B,37.00772809027608,75.37373350484154,1.850386404513804,1.1839678372622253,A,79,Incorrect
2,relearn,7,624,A,35.8755177547041,36.15609833138369,1.793775887735205,0.5679386645017258,D,125,Incorrect
2,relearn,7,625,B,70.67865636919191,91.0792452846112,3.5339328184595957,1.430669439403187,C,29,Incorrect
2,relearn,7,626,D,46.524821217357456,13.00457015502794,2.3262410608678725,0.20427531031064422,D,316,Correct
2,relearn,7,627,A,31.234719466824036,35.49609130628712,1.561735973341202,0.5575712983949207,B,510,Incorrect
2,relearn,7,628,A,33.295968166744025,25.03094571618556,1.6647984083372012,0.39318517587186724,A,444,Correct
2,relearn,7,629,C,55.1835909170821,38.339693670183166,2.7591795458541046,0.6022384998756526,B,557,Incorrect
2,relearn,7,630,D,59.32153888978384,36.12973587621285,2.966076944489192,0.5675245640242494,B,589,Incorrect
2,relearn,7,631,A,4.335866587239252,56.254506925373896,0.2167933293619626,0.883643728440354,A,975,Correct
2,relearn,7,632,B,41.67814335435136,58.63379072439085,2.0839071677175682,0.9210174309593383,B,540,Correct
2,relearn,7,633,B,41.94291629379895,74.88938943246002,2.0971458146899478,1.1763597783642075,C,414,Incorrect
2,relearn,7,634,C,80.20374313820389,49.43244333314516,4.010187156910194,0.7764830041220129,D,317,Incorrect
2,relearn,7,635,B,47.89139924261754,99.2854807642293,2.394569962130877,1.5595726848851674,B,287,Correct
2,relearn,7,636,D,34.46453719190389,23.63134111903719,1.7232268595951945,0.37120023827020826,C,15,Incorrect
2,relearn,7,637,B,42.58756722699364,93.76060934873877,2.129378361349682,1.472788207630501,B,61,Correct
2,relearn,7,638,C,73.067628948326,45.93312601396356,3.6533814474163,0.7215158562094106,C,366,Correct
2,relearn,7,639,C,78.08792058149567,55.82037334228822,3.9043960290747832,0.876824374063861,B,268,Incorrect
2,relearn,7,640,A,50.77728355136509,52.55188902888957,2.5388641775682546,0.8254831425271277,C,383,Incorrect
2,relearn,7,641,A,15.976892617812092,36.69423630025066,0.7988446308906046,0.5763917159497769,B,445,Incorrect
2,relearn,7,642,D,32.31618025697319,37.62213999327802,1.6158090128486595,0.590967193076045,A,623,Incorrect
2,relearn,7,643,B,51.65316502841355,95.64894399272114,2.5826582514206775,1.5024500988557719,C,990,Incorrect
2,relearn,7,644,D,70.92784000465794,40.50030524229658,3.546392000232897,0.6361773070867156,B,557,Incorrect
2,relearn,7,645,C,90.0383559453344,41.166638921755485,4.50191779726672,0.6466440520478535,D,350,Incorrect
2,relearn,7,646,A,42.165572450215464,33.72552132854918,2.108278622510773,0.5297592502212799,B,493,Incorrect
2,relearn,7,647,C,69.19330713372547,46.2129756809487,3.459665356686273,0.725911724498961,D,448,Incorrect
2,relearn,7,648,C,60.617535888147685,54.892077155004074,3.0308767944073844,0.8622427316522245,D,685,Incorrect
2,relearn,7,649,A,43.63988061122075,35.80963468751108,2.1819940305610372,0.5624964263100952,D,413,Incorrect
2,relearn,7,650,A,20.961012747920044,57.099002420828896,1.0480506373960023,0.8969090326629094,D,318,Incorrect
2,relearn,7,651,B,32.693206065719316,73.30360776778458,1.634660303285966,1.1514503782244987,A,494,Incorrect
2,relearn,7,652,D,36.28182074689453,36.99186689524518,1.8140910373447268,0.5810668864033687,A,973,Incorrect
2,relearn,7,653,B,63.26931727528319,95.86496108642656,3.1634658637641597,1.5058432874289451,A,495,Incorrect
2,relearn,7,654,D,65.56753110084374,14.36361183949032,3.2783765550421866,0.22562308716979082,B,491,Incorrect
2,relearn,7,655,C,59.26304785715122,47.087216273603644,2.9631523928575607,0.7396442636157349,C,734,Correct
2,relearn,7,656,B,48.03878053858644,75.40785084431654,2.4019390269293215,1.1845037511774987,C,189,Incorrect
2,relearn,7,657,C,59.00080489744841,67.84192132283769,2.9500402448724206,1.0656584081662182,C,592,Correct
2,relearn,7,658,D,51.455667706110674,50.08138854808874,2.5727833853055335,0.7866766117212579,C,270,Incorrect
2,relearn,7,659,B,63.270267038074834,67.61205404477616,3.1635133519037417,1.0620476614059242,D,365,Incorrect
2,relearn,7,660,C,65.83739044802867,70.72609692216932,3.2918695224014334,1.110962932538834,D,349,Incorrect
2,relearn,7,661,B,51.48047483240319,88.22046554101834,2.574023741620159,1.3857638321996737,D,110,Incorrect
2,relearn,7,662,D,35.167489427123684,43.00746137630473,1.7583744713561842,0.6755596235467286,D,189,Correct
2,relearn,7,663,B,33.944421067269715,70.83844851134306,1.697221053363486,1.1127277471746708,D,75,Incorrect
2,relearn,7,664,C,67.1172432716346,48.218640796396365,3.3558621635817305,0.7574166384602197,D,93,Incorrect
2,relearn,7,665,A,40.16332148338928,49.15066178701759,2.008166074169464,0.7720567899458552,D,384,Incorrect
2,relearn,7,666,A,31.737595127886625,64.89881022958953,1.586879756394331,1.019428127219983,D,299,Incorrect
2,relearn,7,667,B,35.45258505708417,76.13649785487675,1.7726292528542087,1.195949311654679,D,350,Incorrect
2,relearn,7,668,B,25.654375112391435,67.88883968387863,1.2827187556195718,1.0663954000580416,D,15,Incorrect
2,relearn,7,669,B,48.23484649961745,58.83257473158646,2.4117423249808723,0.9241399228426227,A,623,Incorrect
2,relearn,7,670,B,44.372926236301154,69.18162379630161,2.218646311815058,1.0867024054093697,C,781,Incorrect
2,relearn,7,671,D,56.42942502153206,37.44029782518366,2.8214712510766033,0.5881108229790545,B,1070,Incorrect
2,relearn,7,672,A,8.227628312489191,29.78766916556071,0.4113814156244595,0.4679036130904437,B,412,Incorrect
2,relearn,7,673,B,75.64198990013426,73.24014042801774,3.782099495006713,1.1504534355827265,A,236,Incorrect
2,relearn,7,674,C,56.81353826675367,39.676592425514585,2.840676913337683,0.6232384564173653,C,1614,Correct
2,relearn,7,675,B,73.23429918629627,63.13638772017097,3.6617149593148133,0.9917440591794298,C,1406,Incorrect
2,relearn,7,676,C,73.60802482297719,31.2051565593846,3.6804012411488594,0.4901694530054101,A,2270,Incorrect
2,relearn,7,677,C,69.24626081406365,43.8436755143952,3.462313040703182,0.6886948445119934,A,1101,Incorrect
2,relearn,7,678,B,38.682577853276655,60.35550955226374,1.9341288926638327,0.9480621270653018,A,464,Incorrect
2,relearn,7,679,A,42.88703353239862,40.023978897533,2.144351676619931,0.628695190359613,B,878,Incorrect
2,relearn,7,680,C,73.84308216898681,26.68316372291552,3.6921541084493406,0.41913815563222534,C,750,Correct
2,relearn,7,681,B,61.8353081947961,93.67635400535966,3.091765409739805,1.4714647277915733,D,315,Incorrect
2,relearn,7,682,D,31.646012987260246,9.931305881404674,1.5823006493630123,0.15600058798787014,A,286,Incorrect
2,relearn,7,683,C,77.94793527324303,69.42134238471164,3.897396763662152,1.090467896190759,A,1949,Incorrect
2,relearn,7,684,A,12.208598519186886,50.283630659735486,0.6104299259593443,0.7898534233822374,D,1164,Incorrect
2,relearn,7,685,A,13.424272176868163,69.91232256555487,0.6712136088434082,1.0981801948367353,C,703,Incorrect
2,relearn,7,686,C,77.02551236729144,39.68230771005799,3.8512756183645718,0.623328231897039,A,749,Incorrect
2,relearn,7,687,B,27.70092625257685,65.46379055785603,1.3850463126288424,1.028302817463507,A,1583,Incorrect
2,relearn,7,688,A,27.161350840626273,67.5451521913163,1.3580675420313135,1.060996769549219,A,957,Correct
2,relearn,7,689,D,50.813185943371444,-0.7399196467376292,2.540659297168572,-0.011622630632188454,A,2812,Incorrect
2,relearn,7,690,D,56.69459103764554,22.00526891101787,2.8347295518822766,0.345657955755608,C,2398,Incorrect
2,relearn,7,691,C,78.81130593915121,31.238746243728315,3.9405652969575606,0.49069707853326305,C,157,Correct
2,relearn,7,692,D,45.56514470500581,36.969955490453955,2.2782572352502903,0.5807227028617589,D,125,Correct
2,relearn,7,693,A,2.8965793594326286,53.70336755187404,0.14482896797163142,0.8435705248699998,D,687,Incorrect
2,relearn,7,694,C,59.45573432383004,50.37693944271516,2.972786716191502,0.7913191143178592,A,270,Incorrect
2,relearn,7,695,D,42.19269873866168,14.036170156458445,2.1096349369330842,0.2204796452403307,D,780,Correct
2,relearn,7,696,D,67.24832909216023,15.077058166996638,3.3624164546080118,0.23682987587591314,A,2285,Incorrect
2,relearn,7,697,B,52.50408493739501,69.36050832929521,2.6252042468697505,1.0895123170828376,D,1421,Incorrect
2,relearn,7,698,A,11.342431469029403,57.89474122133629,0.5671215734514702,0.9094084685121614,A,1567,Correct
2,relearn,7,699,B,66.28255305620931,84.77258368589165,3.3141276528104653,1.3316046306671157,D,204,Incorrect
2,relearn,7,700,D,58.221126857816856,16.224452605105924,2.9110563428908427,0.25485310556358276,A,2205,Incorrect
2,relearn,7,701,D,26.973846635016855,26.334540381843066,1.3486923317508428,0.41366199299630957,C,113,Incorrect
2,relearn,7,702,A,31.086986402237915,67.45818484558478,1.5543493201118956,1.0596306896769574,C,172,Incorrect
2,relearn,7,703,A,16.188840498387833,66.4713398847966,0.8094420249193917,1.044129365281736,B,2429,Incorrect
2,relearn,7,704,B,42.904200540263886,85.01587341946453,2.1452100270131944,1.3354262168655475,C,942,Incorrect
2,relearn,7,705,C,71.30532883970778,64.03124596954196,3.565266441985389,1.0058004596905703,D,1359,Incorrect
2,relearn,7,706,D,27.526311155391962,29.818006153511735,1.376315557769598,0.46838014538283856,A,540,Incorrect
2,relearn,7,707,B,43.60764170713891,84.47245679168056,2.1803820853569453,1.326890248437124,A,270,Incorrect
2,relearn,7,708,C,77.37642998409024,54.30902380048212,3.868821499204512,0.8530841509761392,A,1181,Incorrect
2,relearn,7,709,B,36.25079736462728,77.51881838495562,1.8125398682313643,1.21766275176569,A,239,Incorrect
2,relearn,7,710,D,44.923913039086855,18.31361800072009,2.246195651954343,0.2876696388585601,B,988,Incorrect
2,relearn,7,711,A,21.565717459176597,36.46464482236194,1.0782858729588298,0.5727853014484667,C,1213,Incorrect
2,relearn,7,712,A,5.003283252250899,64.12053137008422,0.2501641626125449,1.0072029514826524,B,782,Incorrect
2,relearn,7,713,A,47.11261424460523,36.49485888410431,2.3556307122302615,0.5732599028204914,C,1853,Incorrect
2,relearn,7,714,D,26.694631256559905,12.961604029653552,1.3347315628279952,0.20360039999149732,A,447,Incorrect
2,relearn,7,715,A,8.03226088376277,48.32142956204848,0.40161304418813853,0.7590312406154407,C,492,Incorrect
2,relearn,7,716,B,39.59053212430331,71.19209350432665,1.9795266062151655,1.1182827897343512,D,1278,Incorrect
2,relearn,7,717,C,99.78748973165378,46.42640096934346,4.989374486582689,0.7292642010895173,C,2092,Correct
2,relearn,7,718,D,43.87442111825053,26.968038089540606,2.1937210559125266,0.4236129517191524,C,365,Incorrect
2,relearn,7,719,C,92.89234540300427,59.45973551256402,4.6446172701502135,0.9339913413533163,C,3183,Correct
2,relearn,7,720,D,32.11237601610604,28.75369624855434,1.605618800805302,0.4516620044900535,B,224,Incorrect
2,relearn,7,721,A,43.28524358779234,47.29611183490776,2.164262179389617,0.7429255874195374,B,2044,Incorrect
2,relearn,7,722,A,30.379889478735322,61.212894276368985,1.518994473936766,0.9615298948180476,C,366,Incorrect
2,relearn,7,723,B,74.56101503913989,80.48101352576529,3.728050751956994,1.2641928042300248,C,111,Incorrect
2,relearn,7,724,C,79.8713906802309,54.61787997953,3.993569534011545,0.8579356524917023,C,76,Correct
2,relearn,7,725,A,6.241940842357419,68.05698016769442,0.3120970421178709,1.0690365446016752,C,319,Incorrect
2,relearn,7,726,C,59.70931515466255,29.965078246751254,2.9854657577331274,0.47069034842118523,C,284,Correct
2,relearn,7,727,C,75.73691496572737,76.11030019223833,3.786845748286368,1.1955377997322487,C,93,Correct
2,relearn,7,728,D,44.9596656170313,24.562458842745457,2.247983280851565,0.38582620127235384,C,399,Incorrect
2,relearn,7,729,D,45.30468942771993,36.56785336541897,2.2652344713859964,0.5744064974517451,D,363,Correct
2,relearn,7,730,D,37.64346652309133,2.979974513054316,1.8821733261545663,0.0468093301904813,A,350,Incorrect
2,relearn,7,731,A,3.345034088247292,54.081775917659016,0.16725170441236462,0.8495145495800348,B,604,Incorrect
2,relearn,7,732,A,26.845651649292627,50.424271616129886,1.3422825824646312,0.7920626063592499,B,335,Incorrect
2,relearn,7,733,D,72.12270857221266,21.555353582491477,3.6061354286106333,0.3385907023014283,B,590,Incorrect
2,relearn,7,734,B,44.46049200316357,75.61390313701214,2.223024600158179,1.1877404130224376,B,271,Correct
2,relearn,7,735,D,56.85525972276712,44.35929891317725,2.842762986138356,0.6967942379201568,C,285,Incorrect
2,relearn,7,736,B,35.54277081431822,59.230223281422305,1.7771385407159108,0.9303861716569972,B,219,Correct
2,relearn,7,737,D,31.12344985284976,6.45314196040637,1.556172492642488,0.10136571687692343,B,288,Incorrect
2,relearn,7,738,A,10.770702045562558,29.929479818444364,0.538535102278128,0.470131169616944,B,431,Incorrect
2,relearn,7,739,D,60.591206747898866,6.995799364286366,3.029560337394943,0.10988975944415097,B,140,Incorrect
2,relearn,7,740,A,39.90579039429735,40.73347419350601,1.9952895197148675,0.6398399164075396,A,95,Correct
2,relearn,7,741,A,3.180389534028798,58.08699194086641,0.1590194767014399,0.9124283357527772,B,140,Incorrect
2,relearn,7,742,C,91.98215558961095,53.58686697012774,4.599107779480548,0.8417405380112342,A,94,Incorrect
2,relearn,7,743,A,39.868527482721674,50.3043547788593,1.9934263741360838,0.7901789570841948,B,640,Incorrect
2,relearn,7,744,D,29.341982139386072,17.41496958944649,1.4670991069693036,0.2735537026234737,B,878,Incorrect
2,relearn,7,745,C,83.16561179165718,45.481464623739356,4.158280589582859,0.7144211756822181,C,285,Correct
2,relearn,7,746,B,59.4684367026037,83.42572647894542,2.9734218351301847,1.3104482471332322,C,429,Incorrect
2,relearn,7,747,C,80.9481705982303,27.37166328944777,4.0474085299115155,0.42995308153331274,B,1149,Incorrect
2,relearn,7,748,B,73.1337255126992,68.496312261309,3.65668627563496,1.075937556990604,B,271,Correct
2,relearn,7,749,C,85.09648284780506,67.68376028262954,4.2548241423902535,1.0631740203562077,C,303,Correct
2,relearn,7,750,D,39.98172784150423,40.61714392674147,1.9990863920752115,0.6380126048502515,C,494,Incorrect
2,relearn,7,751,A,12.451384482677252,35.847108074641156,0.6225692241338626,0.56308505689866,C,349,Incorrect
2,relearn,7,752,B,53.46747505184874,89.56657753191364,2.673373752592437,1.4069085099072025,C,316,Incorrect
2,relearn,7,753,C,96.47635379285065,45.201341798082275,4.823817689642532,0.7100210166262826,C,350,Correct
2,relearn,7,754,C,62.08754804182375,29.789582029977197,3.104377402091188,0.4679336602944344,C,383,Correct
2,relearn,7,755,A,15.601196138780562,72.97336831241692,0.7800598069390281,1.146262988989956,C,508,Incorrect
2,relearn,7,756,B,59.498670337348926,98.7850790046729,2.9749335168674462,1.5517123924268386,D,477,Incorrect
2,relearn,7,757,B,66.61482575783928,58.37100381814993,3.330741287891964,0.9168895838888079,C,366,Incorrect
2,relearn,7,758,C,63.27919057751772,37.295667164336905,3.163959528875886,0.5858389698710543,C,331,Correct
2,relearn,7,759,B,48.41933599929039,61.30321865292054,2.4209667999645195,0.9629487068071197,C,415,Incorrect
2,relearn,7,760,A,32.66673308081404,40.49372789399416,1.633336654040702,0.6360739903411807,C,320,Incorrect
2,relearn,7,761,D,43.351231778975745,21.952709697343437,2.167561588948787,0.3448323575578177,A,44,Incorrect
2,relearn,7,762,B,56.753680888642194,79.06159142537452,2.8376840444321094,1.2418965740153718,B,15,Correct
2,relearn,7,763,A,5.169563705179463,51.29995895077758,0.25847818525897315,0.8058178708461039,A,237,Correct
2,relearn,7,764,C,74.69012041735499,34.503675888353136,3.7345060208677494,0.5419824734634674,B,221,Incorrect
2,relearn,7,765,A,38.176717689255184,35.2880848641221,1.9088358844627593,0.5543039408418957,D,302,Incorrect
2,relearn,7,766,B,38.967620782077134,62.7735424881661,1.9483810391038565,0.9860444996031469,B,62,Correct
2,relearn,7,767,C,59.86246763631453,58.13756590156233,2.9931233818157263,0.9132227496697035,C,92,Correct
2,relearn,7,768,D,59.00266306423907,44.17549318389973,2.9501331532119535,0.6939070242762269,A,256,Incorrect
2,relearn,7,769,B,54.70514330077584,67.99460062527977,2.7352571650387922,1.0680566890407543,C,123,Incorrect
2,relearn,7,770,A,22.912809501418202,49.49453314985628,1.14564047507091,0.7774583086822249,A,236,Correct
2,relearn,7,771,A,1.1394657799782486,47.96703574953329,0.05697328899891243,0.7534644356260638,B,80,Incorrect
2,relearn,7,772,B,47.09738337180039,49.87502416572321,2.3548691685900196,0.7834350475832472,D,15,Incorrect
2,relearn,7,773,B,48.56011734628352,61.229786631225025,2.428005867314176,0.9617952393076354,A,299,Incorrect
2,relearn,7,774,A,-1.6503283087478557,51.74966843726773,-0.08251641543739278,0.8128818909411395,C,478,Incorrect
2,relearn,7,775,C,65.14135800065176,55.957662774129744,3.2570679000325877,0.8789809114163053,B,272,Incorrect
2,relearn,7,776,B,30.64743575989186,85.4769802337213,1.5323717879945928,1.3426692657664938,D,251,Incorrect
2,relearn,7,777,C,90.58064371079014,55.13959655508262,4.529032185539507,0.8661307572967629,A,319,Incorrect
2,relearn,7,778,D,49.92634639558175,22.162255401464407,2.4963173197790876,0.3481238937811065,D,158,Correct
2,relearn,7,779,C,60.23739518979065,62.27715930111318,3.011869759489532,0.9782473307340922,D,270,Incorrect
2,relearn,7,780,B,55.23247349351426,60.19631241904546,2.761623674675713,0.9455614643443463,C,380,Incorrect
2,relearn,7,781,C,91.61820223071561,58.37055390970889,4.580910111535781,0.9168825167435422,B,176,Incorrect
2,relearn,7,782,D,30.379240144459853,26.46093649468412,1.5189620072229926,0.4156474184940284,D,283,Correct
2,relearn,7,783,B,27.584396357559548,85.56520648001471,1.3792198178779773,1.3440551204025397,A,270,Incorrect
2,relearn,7,784,C,95.0997387838807,46.882311478208926,4.754986939194035,0.736425626616248,C,177,Correct
2,relearn,7,785,D,61.72842927215579,1.9800729812872255,3.0864214636077896,0.03110291365791794,D,107,Correct
2,relearn,7,786,C,77.1081592012532,73.25192830915063,3.85540796006266,1.150638599186569,C,47,Correct
2,relearn,7,787,D,52.89348260465977,38.19820305638379,2.644674130232989,0.6000159705113325,A,109,Incorrect
2,relearn,7,788,A,14.824495374342842,48.19860033693205,0.7412247687171422,0.7571018436590814,C,237,Incorrect
2,relearn,7,789,A,35.357773326970104,66.52907799863216,1.7678886663485054,1.0450363134530256,B,78,Incorrect
2,relearn,7,790,B,41.78336368267505,98.88898304895213,2.0891681841337526,1.5533445133377677,D,78,Incorrect
2,relearn,7,791,C,76.59562176424836,31.278824827394082,3.829781088212418,0.49132663145331634,D,30,Incorrect
2,relearn,7,792,D,28.660124424617752,30.563389888074134,1.4330062212308876,0.4800886057058713,A,332,Incorrect
2,relearn,7,793,B,53.896970936954084,86.65299424596087,2.6948485468477044,1.3611420506733465,D,399,Incorrect
2,relearn,7,794,A,9.436809357733871,65.45964703981483,0.47184046788669354,1.0282377312343154,A,557,Correct
2,relearn,7,795,C,67.95024644822514,53.65193279013279,3.397512322411257,0.8427625895218727,D,110,Incorrect
2,relearn,7,796,B,60.52496024891908,96.89779873232747,3.026248012445954,1.5220670632325117,C,174,Incorrect
2,relearn,7,797,D,75.95320287754004,30.42985016050518,3.797660143877002,0.47799096857040624,C,396,Incorrect
2,relearn,7,798,A,20.62963230855267,25.59155856606496,1.0314816154276334,0.40199126192531315,A,446,Correct
2,relearn,7,799,A,34.16746233906501,26.491044954807034,1.7083731169532508,0.4161203610796936,C,496,Incorrect
2,relearn,7,800,C,70.56501085038195,69.38112929916103,3.5282505425190975,1.089836230520039,A,924,Incorrect
2,relearn,7,801,C,71.07460399714058,65.34052464453762,3.553730199857029,1.0263665610249113,A,555,Incorrect
2,relearn,7,802,C,64.33423443025832,68.63140389444983,3.216711721512916,1.0780595714017875,A,512,Incorrect
2,relearn,7,803,A,14.606481816885122,72.21822829503738,0.7303240908442561,1.1344012773347998,B,394,Incorrect
2,relearn,7,804,A,34.60718837328541,37.9947574997181,1.7303594186642703,0.5968202551802003,D,414,Incorrect
2,relearn,7,805,C,78.57168477414591,65.101676203486,3.9285842387072956,1.0226147384862652,C,542,Correct
2,relearn,7,806,A,20.787964627857484,71.24134850544989,1.0393982313928742,1.1190564854827578,C,558,Incorrect
2,relearn,7,807,D,34.83529412474074,14.856953492039795,1.7417647062370372,0.23337247972658723,B,397,Incorrect
2,relearn,7,808,A,25.27971290130381,54.379050197956545,1.2639856450651905,0.8541841230554543,A,1536,Correct
2,relearn,7,809,B,70.97655866800766,63.914657372381726,3.548827933400383,1.0039690902889156,A,590,Incorrect
2,relearn,7,810,D,41.489212157993094,43.129111683555784,2.074460607899655,0.6774705021045629,A,603,Incorrect
2,relearn,7,811,C,84.19570313033319,47.161583270945584,4.209785156516659,0.7408124176783297,B,175,Incorrect
2,relearn,7,812,B,39.10796431886628,81.18408485699666,1.9553982159433139,1.2752366228757555,C,334,Incorrect
2,relearn,7,813,B,61.05195343485666,71.07137015423378,3.052597671742833,1.1163864717855085,C,460,Incorrect
2,relearn,7,814,C,86.35904413129116,70.01999058961209,4.317952206564558,1.0998714402037588,C,206,Correct
2,relearn,7,815,D,47.9699797107599,35.914848513132604,2.3984989855379952,0.5641491212182385,C,479,Incorrect
2,relearn,7,816,B,67.50277952758839,88.04472239227552,3.3751389763794193,1.3830032652746276,C,239,Incorrect
2,relearn,7,817,D,40.77358335100246,37.69276160111068,2.038679167550123,0.5920765146978039,C,669,Incorrect
2,relearn,7,818,A,5.9310904349741875,33.62351696977569,0.2965545217487094,0.5281569695004953,A,316,Correct
2,relearn,7,819,C,80.90525423897292,31.036781952818,4.045262711948646,0.4875246308702066,D,302,Incorrect
2,relearn,7,820,A,8.722109019817466,62.404502492548346,0.43610545099087333,0.9802476329075791,B,221,Incorrect
2,relearn,7,821,D,59.49959214110481,37.649451454320555,2.9749796070552406,0.591396200502895,A,142,Incorrect
2,relearn,7,822,D,46.79721006594766,49.677933826203926,2.339860503297383,0.7803391597696107,C,158,Incorrect
2,relearn,7,823,A,19.20678258716629,26.64427084500353,0.9603391293583146,0.418527227734599,D,1372,Incorrect
2,relearn,7,824,A,21.908271479838373,30.491550441437905,1.0954135739919186,0.47896015431691963,B,223,Incorrect
2,relearn,7,825,C,65.53280837565526,47.07256725787732,3.276640418782763,0.7394141574147941,B,827,Incorrect
2,relearn,7,826,B,29.131294668353597,87.21989017658503,1.45656473341768,1.3700468311283405,B,606,Correct
2,relearn,7,827,C,77.43771241912897,75.90153036021803,3.8718856209564483,1.192258450879418,A,431,Incorrect
2,relearn,7,828,C,57.111098304981866,68.00188037862274,2.855554915249093,1.0681710391388657,D,1214,Incorrect
2,relearn,7,829,A,40.99495722017328,40.286764158896396,2.0497478610086644,0.6328230115924676,C,2892,Incorrect
2,relearn,7,830,A,41.98526555214625,66.30046212703667,2.0992632776073124,1.0414452237395335,D,957,Incorrect
2,relearn,7,831,A,26.843880985177815,60.96134012444578,1.3421940492588909,0.9575784914397377,D,1297,Incorrect
2,relearn,7,832,B,37.94010203877106,91.19093117660807,1.8970051019385528,1.4324237972922216,C,730,Incorrect
2,relearn,7,833,B,30.04356317575263,59.026168713651806,1.5021781587876317,0.9271808900018009,C,912,Incorrect
2,relearn,7,834,C,96.34998630107073,40.940744898281814,4.817499315053536,0.6430957170246797,D,958,Incorrect
2,relearn,7,835,D,45.31472781854156,45.91101056604328,2.2657363909270782,0.7211684675658246,D,4013,Correct
2,relearn,7,836,A,26.354629534897256,64.19253997190089,1.3177314767448627,1.0083340599549648,A,876,Correct
2,relearn,7,837,B,54.2913384400836,85.62057927098697,2.7145669220041797,1.344924914169176,B,2366,Correct
2,relearn,7,838,A,16.173022201494128,34.30221417883404,0.8086511100747064,0.5388179203304434,B,559,Incorrect
2,relearn,7,839,A,17.878991246599934,36.925644555008176,0.8939495623299968,0.5800266683154082,B,1532,Incorrect
2,relearn,7,840,D,44.58499102996784,6.8295076834147395,2.229249551498392,0.10727765582925396,B,2063,Incorrect
2,relearn,7,841,A,42.51474064453589,62.910429255776066,2.1257370322267946,0.9881947119206325,B,2814,Incorrect
2,relearn,7,842,D,72.18811035272583,12.666925327832416,3.609405517636292,0.198971597767444,D,699,Correct
2,relearn,7,843,C,77.58191026584622,53.86615723381424,3.879095513292311,0.8461276192143176,D,29,Incorrect
2,relearn,7,844,A,21.874963552861402,38.061604680185376,1.0937481776430702,0.5978702882355464,B,622,Incorrect
2,relearn,7,845,C,77.42658437362525,52.09508355462589,3.8713292186812622,0.8183076589167957,B,302,Incorrect
2,relearn,7,846,A,14.4789267746256,67.49525773123626,0.72394633873128,1.0602130292030076,C,557,Incorrect
2,relearn,7,847,C,78.8868918253634,53.29235193865795,3.9443445912681705,0.8371143067150479,B,110,Incorrect
2,relearn,7,848,D,42.28259998635689,20.596970158262387,2.1141299993178446,0.3235364506770266,B,14,Incorrect
2,relearn,7,849,A,22.52475754195257,39.930593606405594,1.1262378770976285,0.6272282976368169,B,943,Incorrect
2,relearn,7,850,C,63.93856942989518,29.6101635749791,3.1969284714947594,0.46511536179373214,B,861,Incorrect
2,relearn,7,851,B,46.65161368087154,98.61557174433796,2.332580684043577,1.5490497786078463,D,587,Incorrect
2,relearn,7,852,C,81.51352133654247,64.58703003925329,4.075676066827123,1.014530695442507,B,192,Incorrect
2,relearn,7,853,A,10.710860462474699,56.84771689706473,0.5355430231237349,0.8929618488858545,A,126,Correct
2,relearn,7,854,D,40.31219103861103,39.786128284366605,2.015609551930552,0.624959041664736,B,2109,Incorrect
2,relearn,7,855,A,37.39377177708061,44.34092064333248,1.8696885888540304,0.6965055527325066,B,1420,Incorrect
2,relearn,7,856,A,5.035699275066193,32.86199070501813,0.25178496375330967,0.5161949429061051,A,349,Correct
2,relearn,7,857,B,31.466127210734637,91.59564156463236,1.5733063605367317,1.4387809732014647,B,702,Correct
2,relearn,7,858,D,73.61484379052885,33.122408268685284,3.680742189526443,0.5202855724305175,D,156,Correct
2,relearn,7,859,A,14.751871949735389,50.226066805605306,0.7375935974867694,0.788949212475999,C,62,Incorrect
2,relearn,7,860,C,85.74673049920958,44.85042551101546,4.2873365249604785,0.704508836478912,B,79,Incorrect
2,relearn,7,861,C,49.22011206626064,48.29823888626584,2.461005603313032,0.7586669623320882,A,221,Incorrect
2,relearn,7,862,C,96.07949578805813,48.86226608428733,4.803974789402906,0.7675266808407338,A,479,Incorrect
2,relearn,7,863,B,57.32701804225117,53.13210426393363,2.866350902112558,0.8345971421267041,D,492,Incorrect
2,relearn,7,864,B,33.48878040773441,94.61788650626684,1.6744390203867203,1.4862542857314038,D,574,Incorrect
2,relearn,7,865,B,65.58385400147543,87.66297941664266,3.279192700073771,1.3770068606355892,D,1790,Incorrect
2,relearn,7,866,A,38.968332468281986,64.3757833735778,1.9484166234140992,1.0112124405776,C,1309,Incorrect
2,relearn,7,867,A,25.523736415206148,73.17412212637218,1.2761868207603073,1.1494164225254657,A,430,Correct
2,relearn,7,868,A,28.16447460042532,34.597133493866,1.4082237300212659,0.5434505020979739,D,510,Incorrect
2,relearn,7,869,A,21.168062074067908,73.19941958998132,1.0584031037033954,1.1498137941546105,C,1581,Incorrect
2,relearn,7,870,C,98.70523211691498,44.35305094883563,4.935261605845749,0.696696095125779,A,1150,Incorrect
2,relearn,7,871,B,64.72201726452215,78.7169164548466,3.2361008632261075,1.2364824322389378,D,206,Incorrect
2,relearn,7,872,A,14.776134796128337,44.62042156927014,0.7388067398064169,0.7008959430104932,B,14,Incorrect
2,relearn,7,873,A,-0.21229098367467003,55.63861995760826,-0.010614549183733502,0.8739693985734829,B,318,Incorrect
2,relearn,7,874,C,86.04217631593701,59.37441333766788,4.302108815796851,0.9326511037641061,C,158,Correct
2,relearn,7,875,A,0.5847532204803123,55.7065616975791,0.029237661024015614,0.8750366249293051,A,61,Correct
2,relearn,7,876,D,59.45508920270604,5.668959595485415,2.972754460135302,0.08904780909337172,C,1453,Incorrect
2,relearn,7,877,A,40.25917585472253,68.31718617898916,2.0129587927361263,1.0731238510691925,A,335,Correct
2,relearn,7,878,D,43.89367411634268,25.482511572047258,2.194683705817134,0.4002783557488028,A,1005,Incorrect
2,relearn,7,879,D,27.916174659290313,31.152582809735947,1.3958087329645155,0.48934362647707064,A,77,Incorrect
2,relearn,7,880,B,31.66227230567305,63.685162604004766,1.5831136152836525,1.0003641948970639,A,1357,Incorrect
2,relearn,7,881,B,67.76653513810791,93.02882102258384,3.3883267569053954,1.4612933034833455,C,1405,Incorrect
2,relearn,7,882,D,36.82067708723955,14.649267940848135,1.8410338543619775,0.23011016271718493,C,3151,Incorrect
2,relearn,7,883,C,82.32098829604085,25.377378613669705,4.116049414802043,0.39862693110035735,A,318,Incorrect
2,relearn,7,884,B,27.43265773036254,70.64010992065593,1.371632886518127,1.1096122518775406,C,431,Incorrect
2,relearn,7,885,B,49.837888562593754,89.99443003928893,2.4918944281296875,1.4136292013771536,C,604,Incorrect
2,relearn,7,886,D,36.3167215998137,32.81007841979629,1.8158360799906847,0.5153795066366852,D,381,Correct
2,relearn,7,887,D,61.7172194467403,2.149932456901979,3.0858609723370147,0.03377106006158756,D,1005,Correct
2,relearn,7,888,D,60.829206393639346,22.93848897135153,3.0414603196819674,0.36031694218424226,A,31,Incorrect
2,relearn,7,889,D,26.83580614230379,19.280737249552075,1.3417903071151895,0.30286111249493936,B,173,Incorrect
2,relearn,7,890,C,67.12745251815272,69.88701169514258,3.3563726259076363,1.0977826126140193,B,251,Incorrect
2,relearn,7,891,A,20.545184025493374,70.83864226795684,1.0272592012746686,1.112730790696443,C,703,Incorrect
2,relearn,7,892,D,34.72668969996925,43.59714306949,1.7363344849984625,0.6848223219230648,C,1343,Incorrect
2,relearn,7,893,A,-0.8589326997653117,54.801318232581266,-0.042946634988265585,0.8608170938325683,C,539,Incorrect
2,relearn,7,894,D,39.826320156730276,24.97299463647992,1.9913160078365137,0.3922748824405131,A,240,Incorrect
2,relearn,7,895,A,11.820154532951076,60.311665267229536,0.5910077266475539,0.9473734226464748,A,284,Correct
2,relearn,7,896,D,70.72292234395604,39.421323784851204,3.536146117197802,0.6192287059863656,C,317,Incorrect
2,relearn,7,897,C,97.3722452132394,53.691357359073926,4.86861226066197,0.8433818692026547,A,300,Incorrect
2,relearn,7,898,B,49.50412700247563,57.64476751865908,2.4752063501237815,0.9054818907725544,D,334,Incorrect
