experiment,condition,subject,trial,cat,x,y,xt,yt,resp,rt,fb
2,new_learn,10,0,A,17.47514857315186,64.69775190108649,0.8737574286575929,1.0162699103811421,D,3081,Incorrect
2,new_learn,10,1,B,47.53793514529514,63.16918766485393,2.376896757264757,0.9922592795057005,C,844,Incorrect
2,new_learn,10,2,D,69.83126849215444,16.148594363047742,3.4915634246077216,0.25366152708376166,D,1327,Correct
2,new_learn,10,3,B,58.56921525170529,58.47813970882726,2.928460762585264,0.9185724705242464,B,1422,Correct
2,new_learn,10,4,A,47.514740859205524,56.19489255940334,2.375737042960276,0.8827073081694463,A,581,Correct
2,new_learn,10,5,A,19.378508470470855,31.757873921755202,0.9689254235235427,0.4988515170310851,C,493,Incorrect
2,new_learn,10,6,B,39.85843322547019,81.6400131143459,1.99292166127351,1.2823983271950175,B,2622,Correct
2,new_learn,10,7,D,63.95179405624554,23.609571520071153,3.1975897028122766,0.3708582822092917,D,1399,Correct
2,new_learn,10,8,C,58.45318946868923,30.51311364090586,2.9226594734344618,0.4792988682621017,D,702,Incorrect
2,new_learn,10,9,C,50.33047553068812,59.460230477789054,2.516523776534406,0.93399911624889,C,996,Correct
2,new_learn,10,10,A,36.624127929468145,61.4799657389053,1.8312063964734073,0.9657250435414854,B,856,Incorrect
2,new_learn,10,11,C,74.0465053489295,36.73208728506153,3.702325267446475,0.5769862778288418,D,683,Incorrect
2,new_learn,10,12,B,44.22627376658868,79.53824084661629,2.2113136883294344,1.2493837656159268,C,3191,Incorrect
2,new_learn,10,13,C,78.7792336236412,32.961368224153034,3.93896168118206,0.5177559613263361,D,1479,Incorrect
2,new_learn,10,14,A,29.6033923080798,31.073769110072543,1.48016961540399,0.48810562377774674,A,1420,Correct
2,new_learn,10,15,C,60.23111341529564,53.63966658723876,3.011555670764782,0.8425699124573757,C,2452,Correct
2,new_learn,10,16,A,15.465495059328584,68.20916600149052,0.7732747529664291,1.0714270740888465,A,847,Correct
2,new_learn,10,17,A,44.979849801213376,66.3348058382994,2.248992490060669,1.0419846934945338,B,598,Incorrect
2,new_learn,10,18,D,67.00565524917627,22.365789309250953,3.3502827624588134,0.35132099692839963,B,1188,Incorrect
2,new_learn,10,19,D,27.570458992221866,10.76909980841578,1.3785229496110931,0.1691606242194713,C,2632,Incorrect
2,new_learn,10,20,D,71.09801090632803,32.58738536931213,3.5549005453164013,0.5118814523796525,D,4054,Correct
2,new_learn,10,21,B,35.81860732378688,75.53418744480273,1.7909303661893439,1.1864882418573333,B,1594,Correct
2,new_learn,10,22,A,1.887712044552547,36.39478703123332,0.09438560222762735,0.5716879778314384,A,1839,Correct
2,new_learn,10,23,D,45.50152436224499,23.148426914731893,2.2750762181122495,0.3636146396874098,C,1859,Incorrect
2,new_learn,10,24,A,6.245403931161974,58.60967268621686,0.3122701965580987,0.9206385857016062,A,615,Correct
2,new_learn,10,25,D,47.166342157708435,41.88214650581094,2.358317107885422,0.6578832188961353,C,2037,Incorrect
2,new_learn,10,26,A,7.248281396760401,38.957256460199524,0.3624140698380201,0.6119391534968818,A,616,Correct
2,new_learn,10,27,D,68.20523480032308,20.318385082412945,3.410261740016154,0.3191604465385848,D,669,Correct
2,new_learn,10,28,C,55.22038239712127,59.753553529495846,2.761019119856064,0.9386066239707432,D,1836,Incorrect
2,new_learn,10,29,B,70.28482238333933,78.05432125373186,3.5142411191669667,1.2260744111583082,D,605,Incorrect
2,new_learn,10,30,C,72.2283853664841,28.213218388148764,3.611419268324205,0.4431721981116631,B,3935,Incorrect
2,new_learn,10,31,A,38.87329896697229,70.6132203517178,1.9436649483486148,1.1091898715163695,C,3549,Incorrect
2,new_learn,10,32,A,13.479055444135097,69.54195567372685,0.6739527722067549,1.0923624853042364,A,604,Correct
2,new_learn,10,33,D,53.51170003407783,21.076732111184615,2.6755850017038916,0.3310725338108884,B,7279,Incorrect
2,new_learn,10,34,D,39.83691411978443,37.38455172437601,1.9918457059892216,0.5872351652752366,B,1252,Incorrect
2,new_learn,10,35,A,23.701514246452533,26.88985221820101,1.1850757123226265,0.42238481092407754,A,600,Correct
2,new_learn,10,36,D,32.63259112417508,34.342409428235854,1.6316295562087537,0.5394493058315931,A,1260,Incorrect
2,new_learn,10,37,A,29.477198396638503,61.187440090852434,1.4738599198319253,0.961130061406938,D,1718,Incorrect
2,new_learn,10,38,C,62.39663234576981,55.62156114510088,3.1198316172884906,0.873701439373222,D,765,Incorrect
2,new_learn,10,39,A,14.661981454896091,29.231202060204193,0.7330990727448046,0.4591626482396816,A,1470,Correct
2,new_learn,10,40,D,35.67030649930524,13.01806665629673,1.783515324965262,0.20448731285682023,B,2446,Incorrect
2,new_learn,10,41,B,50.27586862385739,90.25303609650446,2.5137934311928696,1.417691375824764,C,1478,Incorrect
2,new_learn,10,42,C,80.31435152419674,30.663321173746162,4.015717576209837,0.48165832267052644,D,1004,Incorrect
2,new_learn,10,43,D,37.602865717002345,40.6349781086989,1.8801432858501173,0.6382927435253527,D,2750,Correct
2,new_learn,10,44,A,44.93603305239474,48.78661599896463,2.246801652619737,0.7663383720792677,C,990,Incorrect
2,new_learn,10,45,B,38.576807783363584,73.55605268431955,1.9288403891681793,1.1554157737006105,B,1303,Correct
2,new_learn,10,46,A,34.63337206456203,74.82825688824092,1.7316686032281015,1.1753995106051374,B,806,Incorrect
2,new_learn,10,47,B,29.86598511409025,61.83260358637083,1.4932992557045126,0.9712642658963625,C,1620,Incorrect
2,new_learn,10,48,B,52.32021153037561,99.97099191948205,2.6160105765187804,1.5703406689316466,D,1516,Incorrect
2,new_learn,10,49,D,64.1898682241459,13.130824382721762,3.209493411207295,0.20625850708168206,D,1606,Correct
2,new_learn,10,50,A,24.05815126322286,50.96640760363134,1.2029075631611432,0.800578458537156,A,646,Correct
2,new_learn,10,51,C,85.38191334283991,60.382116058918236,4.269095667141995,0.9484800610945191,D,924,Incorrect
2,new_learn,10,52,B,68.80507063410012,68.28220116362417,3.4402535317050056,1.0725743077329106,D,1048,Incorrect
2,new_learn,10,53,B,37.509603547596456,58.82300116282575,1.8754801773798226,0.9239895415761862,B,1981,Correct
2,new_learn,10,54,D,31.9375403785279,37.9142619581006,1.596877018926395,0.5955558341692391,A,2957,Incorrect
2,new_learn,10,55,D,55.560380151742834,43.54121874509113,2.7780190075871416,0.6839438646896224,C,903,Incorrect
2,new_learn,10,56,A,18.479609216378723,69.9429184965991,0.9239804608189361,1.098660794597727,B,564,Incorrect
2,new_learn,10,57,B,72.32320461489272,88.8901761049548,3.6161602307446357,1.3962836211381449,C,2224,Incorrect
2,new_learn,10,58,C,96.05261294353394,39.68430402565762,4.802630647176698,0.6233595899491492,D,1316,Incorrect
2,new_learn,10,59,B,25.816807762816232,71.2280612327812,1.2908403881408117,1.118847769491747,A,540,Incorrect
2,new_learn,10,60,D,28.81193672216374,39.68850543239304,1.440596836108187,0.6234255854918229,B,2672,Incorrect
2,new_learn,10,61,A,40.552198006042545,44.074541465351096,2.027609900302127,0.6923212783894286,C,1325,Incorrect
2,new_learn,10,62,C,82.5533370029556,34.27425256739921,4.127666850147779,0.5383787003651123,D,659,Incorrect
2,new_learn,10,63,D,50.96201045124966,-1.5453834709743681,2.548100522562483,-0.02427482679696085,C,10077,Incorrect
2,new_learn,10,64,A,14.652459682200806,43.73249335974246,0.7326229841100402,0.6869483993106567,A,677,Correct
2,new_learn,10,65,C,67.70364452548937,30.06916379483868,3.3851822262744684,0.472325320387267,B,1159,Incorrect
2,new_learn,10,66,B,38.66949208542859,60.43591998823948,1.9334746042714295,0.9493252112399685,B,4302,Correct
2,new_learn,10,67,D,42.76275067862625,12.722772592011674,2.1381375339313125,0.19984884454178725,B,1797,Incorrect
2,new_learn,10,68,B,47.73537503919522,71.75910201511124,2.386768751959761,1.1271893385943699,C,1456,Incorrect
2,new_learn,10,69,B,57.8620852761951,54.622723326051315,2.893104263809755,0.8580117316009531,C,1475,Incorrect
2,new_learn,10,70,A,36.48474097515858,50.52150232687102,1.8242370487579291,0.7935899027920883,C,2133,Incorrect
2,new_learn,10,71,A,30.549995603238806,52.462400304647744,1.5274997801619403,0.8240774569338413,B,999,Incorrect
2,new_learn,10,72,B,39.79853464198708,63.73470983238418,1.9899267320993541,1.0011424809404765,D,1286,Incorrect
2,new_learn,10,73,B,73.15102407402784,68.8338621812561,3.6575512037013924,1.0812397787342323,D,2879,Incorrect
2,new_learn,10,74,B,58.83711986463445,57.74570085134985,2.9418559932317225,0.9070673478549727,B,2164,Correct
2,new_learn,10,75,D,74.75574020563832,21.23618548486092,3.7377870102819157,0.3335772215475463,C,1356,Incorrect
2,new_learn,10,76,C,69.98558341730272,59.750111205044774,3.4992791708651363,0.9385525520647093,D,325,Incorrect
2,new_learn,10,77,B,49.8677584206516,70.19228966137294,2.49338792103258,1.10257790769408,B,2086,Correct
2,new_learn,10,78,C,51.27680227594582,61.53322105600354,2.563840113797291,0.9665615761062875,B,2750,Incorrect
2,new_learn,10,79,B,27.05821383804218,63.32520235458337,1.3529106919021092,0.9947099525212308,A,636,Incorrect
2,new_learn,10,80,B,70.22362670877773,62.60888786811455,3.511181335438886,0.9834581108794789,D,852,Incorrect
2,new_learn,10,81,A,33.13376566877406,61.37607610441724,1.6566882834387031,0.9640931489790263,C,7462,Incorrect
2,new_learn,10,82,A,4.567020394980368,60.37339631682083,0.2283510197490184,0.9483430917059468,A,805,Correct
2,new_learn,10,83,B,43.22110728992018,88.88656117354931,2.161055364496009,1.3962268379284113,D,1093,Incorrect
2,new_learn,10,84,B,23.82747165320477,74.37235238705229,1.1913735826602385,1.168238179446774,B,1128,Correct
2,new_learn,10,85,D,50.05204458065672,16.71034392852885,2.502602229032836,0.2624854686241252,D,2123,Correct
2,new_learn,10,86,B,70.9532326899172,59.375527302425766,3.5476616344958596,0.9326686018816049,C,1120,Incorrect
2,new_learn,10,87,D,40.815104193647464,31.6197796867566,2.040755209682373,0.49668233786021154,B,2005,Incorrect
2,new_learn,10,88,B,56.029414410444204,76.50746426328227,2.80147072052221,1.2017764383715561,D,3047,Incorrect
2,new_learn,10,89,C,80.53374911128006,29.755439316606562,4.026687455564002,0.4673973478069403,D,987,Incorrect
2,new_learn,10,90,A,47.226398663094386,38.54014954509966,2.361319933154719,0.6053872533956854,A,694,Correct
2,new_learn,10,91,C,67.66129259450022,41.218163314529484,3.383064629725011,0.6474533953169508,A,733,Incorrect
2,new_learn,10,92,A,40.505239771542975,64.49983134979063,2.0252619885771486,1.0131609816314142,B,2047,Incorrect
2,new_learn,10,93,C,71.15196560675635,39.59802896827055,3.5575982803378174,0.6220043845167728,A,2140,Incorrect
2,new_learn,10,94,A,3.8640031378885453,54.97744501667954,0.19320015689442727,0.863583686887686,A,734,Correct
2,new_learn,10,95,C,72.69166457974293,25.517679860389364,3.6345832289871463,0.40083077793027716,D,893,Incorrect
2,new_learn,10,96,A,38.81799596086008,64.2057551859169,1.940899798043004,1.0085416440513066,C,2895,Incorrect
2,new_learn,10,97,D,69.17595002473462,40.65210586513855,3.458797501236731,0.638561785694369,C,1804,Incorrect
2,new_learn,10,98,B,54.37470260635486,77.88377896499459,2.718735130317743,1.2233955391511915,B,1135,Correct
2,new_learn,10,99,C,49.70843246069869,41.628545755303364,2.4854216230349344,0.653899667622438,A,3453,Incorrect
2,new_learn,10,100,D,64.78155873850216,28.17614267553934,3.2390779369251077,0.4425898141798612,B,1484,Incorrect
2,new_learn,10,101,A,33.98615247821833,53.571826129405444,1.6993076239109166,0.8415042770376494,A,1111,Correct
2,new_learn,10,102,C,59.293655518827094,31.99788091787317,2.964682775941355,0.5026215381101569,C,4412,Correct
2,new_learn,10,103,C,61.937338754613336,33.20157812774063,3.096866937730667,0.5215291696684876,D,1312,Incorrect
2,new_learn,10,104,B,73.86321931545916,80.20567968734267,3.6931609657729583,1.259867870409659,B,1525,Correct
2,new_learn,10,105,B,69.3471733109401,85.84474771495186,3.4673586655470046,1.3484461438528095,D,4245,Incorrect
2,new_learn,10,106,A,5.204516224677768,34.297676163760215,0.2602258112338884,0.5387466373563543,A,616,Correct
2,new_learn,10,107,B,71.18923636910918,70.06335686674774,3.5594618184554587,1.1005526360920732,B,1139,Correct
2,new_learn,10,108,D,50.89656199284348,16.435784249627847,2.544828099642174,0.2581726952730884,C,621,Incorrect
2,new_learn,10,109,B,38.737659466539675,79.63095839042667,1.9368829733269837,1.2508401693883946,C,878,Incorrect
2,new_learn,10,110,D,72.17369891802687,24.10858721968536,3.6086849459013433,0.3786968024889615,D,1376,Correct
2,new_learn,10,111,C,97.75287548575142,38.478550239182454,4.887643774287571,0.6044196537610069,D,2109,Incorrect
2,new_learn,10,112,C,78.50015462224624,72.78291569875262,3.925007731112312,1.143271366330232,D,783,Incorrect
2,new_learn,10,113,D,66.41642181838506,12.353280099502713,3.320821090919253,0.19404487004167356,C,829,Incorrect
2,new_learn,10,114,B,45.162436934963054,52.52773010796169,2.258121846748153,0.825103655084599,B,1982,Correct
2,new_learn,10,115,B,73.36971623907397,77.17907230321379,3.6684858119536985,1.2123260327932597,C,854,Incorrect
2,new_learn,10,116,D,34.29314020707805,6.298139302424403,1.7146570103539027,0.09893094081890824,A,1213,Incorrect
2,new_learn,10,117,D,55.02345127550164,31.37825411952992,2.751172563775082,0.49288846312194434,B,958,Incorrect
2,new_learn,10,118,A,18.512128940819668,58.071832470942965,0.9256064470409834,0.912190211356058,A,1021,Correct
2,new_learn,10,119,D,35.79869738473485,40.33065251397268,1.7899348692367425,0.6335124082618965,C,1893,Incorrect
2,new_learn,10,120,A,37.85206408667565,52.36206163967128,1.8926032043337824,0.8225013408700361,D,1010,Incorrect
2,new_learn,10,121,D,49.85889989806509,51.28824098432372,2.4929449949032545,0.8056338054594718,B,4174,Incorrect
2,new_learn,10,122,D,56.42953799045956,29.956352491714746,2.821476899522978,0.4705532845815868,C,2268,Incorrect
2,new_learn,10,123,D,36.50878977329742,33.148209874092004,1.825439488664871,0.5206908631005004,C,2519,Incorrect
2,new_learn,10,124,B,43.980472163352914,89.39608741736333,2.1990236081676455,1.4042304574502982,D,1797,Incorrect
2,new_learn,10,125,C,84.7734146293792,56.290789342073396,4.23867073146896,0.8842136513091421,D,704,Incorrect
2,new_learn,10,126,A,46.02303730564204,45.54186563495543,2.3011518652821024,0.7153699525477472,B,1859,Incorrect
2,new_learn,10,127,A,11.80035793137448,42.90510069046344,0.5900178965687239,0.6739517456534514,A,743,Correct
2,new_learn,10,128,A,16.578093142249166,61.648615186246374,0.8289046571124584,0.9683741828654788,A,956,Correct
2,new_learn,10,129,A,38.495392884991766,38.975844394230236,1.9247696442495883,0.6122311320818632,B,1693,Incorrect
2,new_learn,10,130,D,67.2469023922955,25.96819748962782,3.362345119614775,0.40790749230191836,C,2316,Incorrect
2,new_learn,10,131,C,78.5138742316008,48.376806303054074,3.9256937115800397,0.7599010964290553,C,1791,Correct
2,new_learn,10,132,C,54.47424811667493,44.87342488139194,2.723712405833746,0.7048701097439717,C,1463,Correct
2,new_learn,10,133,B,57.0586861503248,82.3660131262398,2.85293430751624,1.2938023087143773,D,1021,Incorrect
2,new_learn,10,134,C,59.34704580068526,52.58463447845351,2.967352290034263,0.8259975068460704,B,1909,Incorrect
2,new_learn,10,135,D,53.89672954018626,12.76589556411747,2.6948364770093125,0.20052621860362987,D,2735,Correct
2,new_learn,10,136,D,48.14450194628236,26.14524319663919,2.407225097314118,0.410688519764401,B,3365,Incorrect
2,new_learn,10,137,A,34.78811993168013,40.480524541092734,1.7394059965840063,0.6358665925587913,A,1342,Correct
2,new_learn,10,138,D,57.894687340762054,22.211238003797273,2.8947343670381027,0.34889331069931967,B,8390,Incorrect
2,new_learn,10,139,A,19.76346193353685,28.114685459800533,0.9881730966768424,0.4416244464924856,A,429,Correct
2,new_learn,10,140,C,69.84063505532563,65.04298520884572,3.4920317527662816,1.0216928224982964,C,1246,Correct
2,new_learn,10,141,A,37.39836000132842,47.27167163421357,1.869918000066421,0.7425416816447717,D,2286,Incorrect
2,new_learn,10,142,D,30.455120346722392,29.40913073288533,1.5227560173361194,0.46195754529447186,A,1334,Incorrect
2,new_learn,10,143,C,67.38956558156268,27.054276593173405,3.369478279078134,0.42496758296649934,B,1341,Incorrect
2,new_learn,10,144,D,68.26900545824898,10.179918851551609,3.4134502729124496,0.15990579139087388,D,6187,Correct
2,new_learn,10,145,C,67.69289862945601,41.20516573523331,3.3846449314728004,0.6472492298187942,D,969,Incorrect
2,new_learn,10,146,A,40.96783346597279,34.39524639798347,2.048391673298639,0.5402792670115784,C,4550,Incorrect
2,new_learn,10,147,D,53.382952249588605,49.73986781979774,2.6691476124794304,0.7813120166660197,B,908,Incorrect
2,new_learn,10,148,B,58.66467478926943,53.88398213472605,2.9332337394634713,0.8464076121030951,B,1245,Correct
2,new_learn,10,149,A,22.583837299451506,35.85975787427219,1.1291918649725752,0.5632837594866112,A,848,Correct
2,new_learn,10,150,A,29.719227009954178,29.0118880777188,1.4859613504977087,0.45571767225865345,C,1212,Incorrect
2,new_learn,10,151,A,7.656298084467203,35.727097885958415,0.3828149042233601,0.5611999412630518,A,581,Correct
2,new_learn,10,152,A,40.57743902275298,49.15176889369175,2.028871951137649,0.7720741803368265,B,1060,Incorrect
2,new_learn,10,153,B,39.56485958884734,99.02804018098378,1.9782429794423673,1.5555288176598674,A,3902,Incorrect
2,new_learn,10,154,B,42.55483745684806,98.46842350294091,2.127741872842403,1.5467383794370382,C,1501,Incorrect
2,new_learn,10,155,A,17.15427952974514,71.12684487934352,0.857713976487257,1.1172578667298318,A,599,Correct
2,new_learn,10,156,C,57.99137694594715,70.0807380682339,2.8995688472973575,1.1008256593665708,D,684,Incorrect
2,new_learn,10,157,A,33.02673270165032,59.94947812891312,1.6513366350825158,0.9416842003816771,C,1207,Incorrect
2,new_learn,10,158,D,58.977899683187694,6.598399884626222,2.948894984159385,0.10364742301494737,D,982,Correct
2,new_learn,10,159,C,52.16626813182339,53.25716939917698,2.608313406591169,0.8365616606772077,B,2860,Incorrect
2,new_learn,10,160,A,11.286851551252825,64.4108925266074,0.5643425775626413,1.0117639338637576,A,600,Correct
2,new_learn,10,161,B,37.596341100129614,82.35534031938036,1.8798170550064808,1.2936346606562632,B,1364,Correct
2,new_learn,10,162,D,75.50845923656377,21.665452174835494,3.7754229618281885,0.340320126945821,C,1476,Incorrect
2,new_learn,10,163,B,65.88838058405872,81.16455746425041,3.294419029202936,1.2749298873077783,C,2989,Incorrect
2,new_learn,10,164,D,57.815717876402836,42.35629007197244,2.8907858938201416,0.6653310486171345,A,2391,Incorrect
2,new_learn,10,165,C,68.95412723487011,26.422117815437492,3.4477063617435055,0.41503765610631216,B,1240,Incorrect
2,new_learn,10,166,B,33.06427361397265,86.30295462270863,1.6532136806986326,1.3556436411289734,C,1516,Incorrect
2,new_learn,10,167,D,64.61878557194947,24.272084634460203,3.2309392785974738,0.38126501387464945,B,2688,Incorrect
2,new_learn,10,168,C,84.33807439860323,28.37148009522611,4.216903719930161,0.44565816719315693,D,1187,Incorrect
2,new_learn,10,169,A,25.771009041222833,26.249989578848282,1.2885504520611417,0.412333872088592,A,640,Correct
2,new_learn,10,170,C,87.43205118486932,70.39095012791168,4.371602559243467,1.1056984590052643,D,3053,Incorrect
2,new_learn,10,171,C,86.81985565176689,39.67407776851174,4.340992782588344,0.623198956277533,D,1222,Incorrect
2,new_learn,10,172,D,59.258674605217806,44.610480471288064,2.9629337302608905,0.7007397886085476,C,1158,Incorrect
2,new_learn,10,173,D,53.126473447999864,9.1349499824748,2.6563236723999935,0.14349145877926525,D,1101,Correct
2,new_learn,10,174,B,64.13660193320248,57.9370775851275,3.2068300966601244,0.910073486559492,B,2671,Correct
2,new_learn,10,175,B,35.41569360517191,69.6381755916471,1.7707846802585954,1.093873904240573,B,1918,Correct
2,new_learn,10,176,C,84.02002595777918,74.12220699888826,4.2010012978889595,1.1643089048778463,B,2139,Incorrect
2,new_learn,10,177,A,10.797059780871317,65.17793430973646,0.5398529890435658,1.023812598018131,A,573,Correct
2,new_learn,10,178,C,64.63999526321304,43.27694273943294,3.231999763160652,0.6797926269001433,B,1422,Incorrect
2,new_learn,10,179,D,32.838387277307646,26.298946395280247,1.6419193638653824,0.41310288396282097,A,941,Incorrect
2,new_learn,10,180,B,48.32998882810128,62.51865846798953,2.416499441405064,0.9820407907766262,B,1671,Correct
2,new_learn,10,181,D,73.2051419098573,11.85524459148075,3.660257095492865,0.18622174657553028,C,1115,Incorrect
2,new_learn,10,182,D,49.648227910979585,-0.8990528779014895,2.4824113955489793,-0.014122289582020402,D,1359,Correct
2,new_learn,10,183,A,15.024172926824194,73.20656741243968,0.7512086463412098,1.1499260718872324,A,685,Correct
2,new_learn,10,184,B,42.42055338312851,84.76262243203291,2.121027669156425,1.3314481596574,C,1277,Incorrect
2,new_learn,10,185,D,56.587551473091175,4.913837632636419,2.8293775736545586,0.07718638103811817,D,720,Correct
2,new_learn,10,186,D,29.68892050527818,36.190860899054464,1.484446025263909,0.5684847136377981,C,1124,Incorrect
2,new_learn,10,187,B,53.16500107753735,65.03937111133567,2.6582500538768676,1.0216360523873618,C,2392,Incorrect
2,new_learn,10,188,A,9.053330475841998,63.10859037772444,0.4526665237920999,0.9913074195453331,A,611,Correct
2,new_learn,10,189,C,62.25923343718273,68.70701153454107,3.1129616718591366,1.079247213435117,C,1352,Correct
2,new_learn,10,190,C,77.21618529712315,40.64855010528098,3.8608092648561576,0.6385059319491367,C,1812,Correct
2,new_learn,10,191,D,71.19890189147225,37.63753616420828,3.5599450945736124,0.5912090355634845,B,2032,Incorrect
2,new_learn,10,192,C,55.604027599488234,37.970517341342955,2.780201379974412,0.5964394916628344,B,1099,Incorrect
2,new_learn,10,193,A,33.12880755453534,67.38410785082473,1.656440377726767,1.0584670909642664,A,752,Correct
2,new_learn,10,194,B,69.67693261107371,60.14277759852569,3.4838466305536855,0.9447205413500654,B,1212,Correct
2,new_learn,10,195,A,42.90587145196167,57.52973793660163,2.1452935725980837,0.9036750103228686,A,1816,Correct
2,new_learn,10,196,C,50.03334385394582,45.34796160693953,2.5016671926972913,0.7123241151981661,A,1813,Incorrect
2,new_learn,10,197,B,41.84963643853313,77.2039057515492,2.0924818219266568,1.2127161156875288,A,2755,Incorrect
2,new_learn,10,198,C,100.66945747438423,45.51399352835504,5.033472873719211,0.7149321385210679,C,2230,Correct
2,new_learn,10,199,B,36.71657545754036,70.35536699727412,1.835828772877018,1.1051395204962506,B,1094,Correct
2,new_learn,10,200,D,39.59658593882191,44.179193453596646,1.9798292969410953,0.6939651479767075,B,1255,Incorrect
2,new_learn,10,201,A,26.54084947346484,48.663732791388156,1.327042473673242,0.7644081271684088,A,709,Correct
2,new_learn,10,202,B,51.81367728750962,63.50928026403733,2.590683864375481,0.9976014415613745,C,3980,Incorrect
2,new_learn,10,203,D,51.23187342200132,37.5127668163516,2.561593671100066,0.5892491632303858,C,1141,Incorrect
2,new_learn,10,204,D,32.00833474714889,13.027166975601816,1.6004167373574447,0.20463026033819112,D,1549,Correct
2,new_learn,10,205,C,55.69694441296335,38.1222238496964,2.784847220648168,0.5988224919235589,C,2518,Correct
2,new_learn,10,206,C,71.25688827848792,53.2669320817963,3.5628444139243958,0.8367150125371887,C,1668,Correct
2,new_learn,10,207,B,30.233608820864504,58.78938940001176,1.5116804410432252,0.9234615692405329,A,1048,Incorrect
2,new_learn,10,208,D,69.43665597524719,14.311754636395916,3.4718327987623594,0.22480851612840536,B,1963,Incorrect
2,new_learn,10,209,B,39.421904523447786,87.9980550239423,1.9710952261723893,1.3822702159670375,B,2071,Correct
2,new_learn,10,210,A,3.5890229380543204,50.68508307294122,0.17945114690271602,0.7961594231427025,A,635,Correct
2,new_learn,10,211,B,43.820430089944644,82.54955376113294,2.191021504497232,1.2966853582654545,B,766,Correct
2,new_learn,10,212,A,3.031129913506028,41.629053361643685,0.1515564956753014,0.6539076410841863,A,534,Correct
2,new_learn,10,213,B,41.346897301874236,53.393038319354886,2.0673448650937116,0.8386958846846181,C,1287,Incorrect
2,new_learn,10,214,D,48.87715278088067,41.57119757200806,2.4438576390440336,0.652998844465752,A,2082,Incorrect
2,new_learn,10,215,A,26.298055865002183,61.82854215864109,1.3149027932501094,0.9712004691387685,A,814,Correct
2,new_learn,10,216,A,20.414495261022246,35.87110906763639,1.0207247630511123,0.5634620636150236,A,901,Correct
2,new_learn,10,217,C,95.20192976316758,49.20142315003232,4.760096488158379,0.7728541475715215,D,2456,Incorrect
2,new_learn,10,218,B,51.17325302921724,53.32258776434523,2.558662651460862,0.8375892499543198,B,2854,Correct
2,new_learn,10,219,D,33.71505847819198,40.99589137449329,1.6857529239095987,0.6439619558473665,B,1397,Incorrect
2,new_learn,10,220,A,50.14150735821583,42.97584589417616,2.507075367910792,0.6750630087147544,C,1127,Incorrect
2,new_learn,10,221,D,55.817344262862825,40.588433615092065,2.790867213143141,0.6375616243294512,B,4907,Incorrect
2,new_learn,10,222,C,62.10459733651869,57.782327570201694,3.1052298668259346,0.907642679009323,B,4511,Incorrect
2,new_learn,10,223,B,55.62826865461095,68.27660422544017,2.7814134327305475,1.0724863912335032,C,1235,Incorrect
2,new_learn,10,224,A,34.98115191767109,46.05148344212881,1.7490575958835546,0.7233750103435194,A,952,Correct
2,new_learn,10,225,C,83.4596952458223,62.19860444387208,4.172984762291115,0.9770133939220299,C,1469,Correct
2,new_learn,10,226,D,46.12166596056477,12.705532044933964,2.3060832980282386,0.1995780306615712,D,779,Correct
2,new_learn,10,227,B,47.14467376953285,79.42629934986982,2.3572336884766427,1.247625392696874,B,848,Correct
2,new_learn,10,228,A,4.801307585493074,58.006293297233796,0.2400653792746537,0.9111607244228228,A,683,Correct
2,new_learn,10,229,B,67.48091653134341,67.49242598122449,3.3740458265671704,1.0601685481778387,C,449,Incorrect
2,new_learn,10,230,D,75.1642036078653,26.078741058419325,3.7582101803932653,0.40964390662000333,C,779,Incorrect
2,new_learn,10,231,D,59.74809996972336,41.56483686207132,2.987404998486168,0.6528989306677074,C,1133,Incorrect
2,new_learn,10,232,C,62.76433726071593,35.79503480038757,3.138216863035796,0.5622670918194429,B,838,Incorrect
2,new_learn,10,233,D,43.695558188390265,5.246111645933137,2.1847779094195134,0.08240572903387701,D,880,Correct
2,new_learn,10,234,C,53.03258861159982,58.98916495311465,2.651629430579991,0.9265996362905076,B,1396,Incorrect
2,new_learn,10,235,C,69.4878487621054,30.372561762176776,3.4743924381052698,0.4770910845137841,C,3575,Correct
2,new_learn,10,236,A,35.02744131683876,37.29788722646263,1.7513720658419378,0.5858738425253779,A,924,Correct
2,new_learn,10,237,D,43.262224938183785,21.25153305602886,2.1631112469091893,0.3338183006317045,A,1167,Incorrect
2,new_learn,10,238,C,73.25928637638334,49.44885795184126,3.662964318819167,0.7767408443495487,B,2052,Incorrect
2,new_learn,10,239,B,43.4451364707205,62.82892979336471,2.172256823536025,0.9869145213587173,C,1332,Incorrect
2,new_learn,10,240,C,63.53405244286198,26.524691513008538,3.176702622143099,0.41664887998001576,C,1054,Correct
2,new_learn,10,241,D,48.246462512059004,4.397651937167044,2.41232312560295,0.06907815509424454,D,845,Correct
2,new_learn,10,242,D,56.431303808415706,26.915179806871627,2.821565190420785,0.42278265575658125,C,1460,Incorrect
2,new_learn,10,243,D,69.4608152026147,27.505917159548076,3.473040760130735,0.4320619363934283,C,1854,Incorrect
2,new_learn,10,244,C,77.03886289412542,27.010054670992016,3.851943144706271,0.424272946637236,D,1039,Incorrect
2,new_learn,10,245,A,35.14911493613823,70.53676604616427,1.7574557468069116,1.1079889300930583,A,573,Correct
2,new_learn,10,246,C,73.60270471751494,58.503557582486785,3.680135235875747,0.9189717335500395,C,3493,Correct
2,new_learn,10,247,B,31.36077355142492,67.81616013459342,1.568038677571246,1.0652537523675383,A,742,Incorrect
2,new_learn,10,248,D,27.628979147379095,33.74893314174552,1.3814489573689548,0.530127002123004,A,748,Incorrect
2,new_learn,10,249,B,43.08642436231196,94.00669848052048,2.154321218115598,1.4766537666731696,D,1030,Incorrect
2,new_learn,10,250,C,78.98788806898993,29.897506715848323,3.9493944034494968,0.469628937295803,B,1830,Incorrect
2,new_learn,10,251,B,45.34837328389236,61.13154772090996,2.2674186641946177,0.960252106112923,B,1390,Correct
2,new_learn,10,252,B,66.59598971243592,55.656071667225234,3.3297994856217965,0.8742435293871093,B,2789,Correct
2,new_learn,10,253,B,70.55621776237373,62.012650080036565,3.527810888118687,0.9740924296053868,B,710,Correct
2,new_learn,10,254,D,46.54897755081358,46.8160890852846,2.327448877540679,0.735385407700677,B,1445,Incorrect
2,new_learn,10,255,C,80.06738779861239,48.86130728453866,4.0033693899306195,0.7675116200495006,C,805,Correct
2,new_learn,10,256,D,31.409927528614524,14.624757752683152,1.5704963764307263,0.22972515758179882,A,844,Incorrect
2,new_learn,10,257,B,61.181580768999055,81.56107048754735,3.059079038449953,1.2811582993129904,B,2295,Correct
2,new_learn,10,258,D,59.73899799360365,33.5467666805614,2.9869498996801824,0.5269513787767127,C,1450,Incorrect
2,new_learn,10,259,C,98.80062708160573,50.26645148696203,4.940031354080286,0.7895835735673381,A,1559,Incorrect
2,new_learn,10,260,D,69.04965386949773,18.80046691893443,3.4524826934748862,0.2953170437829116,C,1934,Incorrect
2,new_learn,10,261,B,55.01996569156629,48.9878539402832,2.7509982845783143,0.7694994102696175,C,2565,Incorrect
2,new_learn,10,262,A,42.10209677580228,61.88793072683469,2.105104838790114,0.9721333425864894,B,6813,Incorrect
2,new_learn,10,263,B,25.32034967769907,73.02622075760814,1.2660174838849536,1.147093193257641,A,614,Incorrect
2,new_learn,10,264,C,88.70511831293602,67.36306298827381,4.435255915646801,1.0581365190363377,B,1544,Incorrect
2,new_learn,10,265,D,71.91712756131436,39.995312660994216,3.5958563780657182,0.6282449021690313,B,1108,Incorrect
2,new_learn,10,266,A,50.33840034744555,45.582048947361415,2.516920017372277,0.7160011505430048,C,5294,Incorrect
2,new_learn,10,267,B,28.520346423185522,73.62100437461277,1.426017321159276,1.1564360324659275,C,1990,Incorrect
2,new_learn,10,268,A,19.134425773002288,56.55427096346956,0.9567212886501144,0.8883524109398127,A,677,Correct
2,new_learn,10,269,C,56.72171435530168,41.28565678926462,2.8360857177650836,0.6485135803389165,C,3167,Correct
2,new_learn,10,270,C,57.87195184053509,35.64265354750664,2.8935975920267545,0.5598734926964651,C,916,Correct
2,new_learn,10,271,B,59.975333716001245,95.62023822628208,2.9987666858000623,1.5019991897309686,B,1283,Correct
2,new_learn,10,272,B,34.07536570771221,95.63335422198077,1.7037682853856102,1.502205215309626,B,767,Correct
2,new_learn,10,273,D,55.36025722664993,22.342345707750958,2.768012861332496,0.35095274569716933,C,951,Incorrect
2,new_learn,10,274,C,84.4707801801186,71.87069917290682,4.22353900900593,1.1289423026498304,D,1659,Incorrect
2,new_learn,10,275,A,-0.15731151534771115,46.72073138983615,-0.007865575767385558,0.7338875325232566,A,4871,Correct
2,new_learn,10,276,B,29.948962931334346,85.84477077599337,1.4974481465667173,1.3484465060948028,B,1648,Correct
2,new_learn,10,277,C,72.14399713168444,34.60208183663794,3.6071998565842223,0.543528230484473,D,1372,Incorrect
2,new_learn,10,278,D,69.1931801459141,33.23683852921544,3.4596590072957047,0.5220830387596671,C,717,Incorrect
2,new_learn,10,279,B,53.44344313300985,97.08457228248909,2.6721721566504923,1.525000895297875,B,1606,Correct
2,new_learn,10,280,A,40.18276329630304,46.62242803017451,2.009138164815152,0.7323433869605755,A,1308,Correct
2,new_learn,10,281,D,59.94971558065177,3.2409455608028743,2.9974857790325884,0.050908653822513805,D,992,Correct
2,new_learn,10,282,B,52.29737944430236,58.06364633727087,2.614868972215118,0.9120616238690301,C,1708,Incorrect
2,new_learn,10,283,B,33.92108054682767,89.83901128963012,1.6960540273413836,1.4111878893663625,B,1061,Correct
2,new_learn,10,284,A,4.407963860479214,62.379293371201726,0.2203981930239607,0.9798516489554492,A,670,Correct
2,new_learn,10,285,D,74.02894562820116,29.812505279711832,3.701447281410058,0.46829373785924805,D,2407,Correct
2,new_learn,10,286,D,38.37397537703133,41.28435279169485,1.9186987688515666,0.648493097192989,C,1667,Incorrect
2,new_learn,10,287,D,45.83759330468317,0.8804479771235414,2.291879665234158,0.01383004448399656,D,957,Correct
2,new_learn,10,288,B,24.423240698992803,71.75579465709457,1.2211620349496402,1.12713738673613,A,926,Incorrect
2,new_learn,10,289,D,37.845562996341215,48.531863666708276,1.8922781498170607,0.7623367318017606,A,1439,Incorrect
2,new_learn,10,290,A,18.34926400066032,62.31630049724868,0.9174632000330161,0.9788621592052522,A,917,Correct
2,new_learn,10,291,D,66.48580470802351,5.844673351197283,3.3242902354011754,0.0918079143137671,D,1426,Correct
2,new_learn,10,292,A,13.233920985279665,73.91503011156,0.6616960492639832,1.1610545779417263,A,2518,Correct
2,new_learn,10,293,A,18.857417097824197,27.487592314187264,0.9428708548912098,0.4317740903956098,C,4671,Incorrect
2,new_learn,10,294,D,34.82411020420319,37.73011620137011,1.7412055102101593,0.5926632793865678,C,2006,Incorrect
2,new_learn,10,295,B,63.87162134105116,56.75382355482955,3.193581067052558,0.8914869757149194,C,5693,Incorrect
2,new_learn,10,296,C,88.72505056151033,56.68441835250352,4.436252528075516,0.8903967613461775,D,3485,Incorrect
2,new_learn,10,297,C,72.01064777953812,73.95517449195653,3.6005323889769056,1.1616851643944095,C,1341,Correct
2,new_learn,10,298,D,33.548677474091846,44.690344895020196,1.6774338737045924,0.7019942960429478,A,1358,Incorrect
2,new_learn,10,299,A,10.97875917214483,52.30684150426621,0.5489379586072416,0.8216339450114422,A,663,Correct
2,new_learn,10,300,A,13.360381574457406,49.38683582333435,0.6680190787228704,0.7757666030331621,A,638,Correct
2,new_learn,10,301,C,67.66687010193458,37.16854329704043,3.383343505096729,0.5838421128330817,A,1357,Incorrect
2,new_learn,10,302,C,57.7574123724562,46.20677460294804,2.8878706186228102,0.725814318193505,C,3413,Correct
2,new_learn,10,303,D,67.68055120215307,30.69052413087336,3.3840275601076537,0.4820856257218601,C,1474,Incorrect
2,new_learn,10,304,D,43.223203179737716,18.549006913425956,2.1611601589868856,0.29136711925302633,C,967,Incorrect
2,new_learn,10,305,A,19.277339225326806,56.72433392977969,0.9638669612663403,0.8910237537678506,A,615,Correct
2,new_learn,10,306,B,66.67434530318769,73.08441034208577,3.3337172651593847,1.1480072331131927,B,2870,Incorrect
2,new_learn,10,307,C,77.45422566051846,57.3502318871803,3.872711283025923,0.9008553358921836,B,1507,Incorrect
2,new_learn,10,308,A,26.787822612542826,46.923768952072116,1.339391130627141,0.7370768390928729,A,1638,Incorrect
2,new_learn,10,309,B,63.649340406380674,65.76823158715534,3.182467020319034,1.033084965968997,C,3046,Incorrect
2,new_learn,10,310,D,39.61243074429829,2.3666605182145872,1.9806215372149143,0.0371754164878198,D,838,Incorrect
2,new_learn,10,311,C,57.856564908387426,45.173556848079436,2.8928282454193717,0.7095845716522363,B,3732,Incorrect
2,new_learn,10,312,D,67.91577401848157,13.76709685952998,3.3957887009240784,0.2162530517757925,D,3511,Incorrect
2,new_learn,10,313,A,5.783433509557657,35.05323440776635,0.28917167547788286,0.5506149184999986,A,2483,Incorrect
2,new_learn,10,314,A,30.970693359493232,31.059760844846995,1.5485346679746614,0.4878855824621361,C,5854,Incorrect
2,new_learn,10,315,A,48.579825381860616,49.22781013553007,2.428991269093031,0.7732686333704724,C,1248,Incorrect
2,new_learn,10,316,C,67.96115599514802,37.387701512347675,3.3980577997574013,0.5872846420289973,C,2695,Incorrect
2,new_learn,10,317,A,0.46625088119001035,59.872174705415674,0.023312544059500517,0.9404699210448927,A,786,Correct
2,new_learn,10,318,A,34.90296148561616,74.23511423419963,1.745148074280808,1.1660824475828033,B,1293,Incorrect
2,new_learn,10,319,A,25.987548127504063,58.51835322633821,1.299377406375203,0.9192041429801835,A,2190,Incorrect
2,new_learn,10,320,D,40.422841729154044,26.894987832510203,2.021142086457702,0.4224654809650046,B,1119,Incorrect
2,new_learn,10,321,D,65.96620277724926,40.75106834144505,3.298310138862463,0.6401162846370968,B,2037,Correct
2,new_learn,10,322,C,79.64714393808596,43.16352941292346,3.9823571969042977,0.6780111345332365,B,779,Incorrect
2,new_learn,10,323,A,28.646074840397617,32.27437722159541,1.4323037420198808,0.5069647318927494,B,9289,Correct
2,new_learn,10,324,D,59.82838077788951,11.372643047014313,2.9914190388944752,0.17864105924199605,C,1789,Correct
2,new_learn,10,325,A,25.291146999029223,64.21674474956642,1.264557349951461,1.0087142677134437,A,1579,Incorrect
2,new_learn,10,326,D,64.18091900565555,10.42698456654591,3.2090459502827775,0.16378669056677392,C,1135,Incorrect
2,new_learn,10,327,A,10.753348801846343,71.35398964471894,0.5376674400923172,1.120825848360856,A,576,Incorrect
2,new_learn,10,328,A,34.71523771006558,25.346554963589274,1.735761885503279,0.3981427543371098,C,4196,Incorrect
2,new_learn,10,329,C,91.52775617295015,33.57389090975441,4.576387808647508,0.5273774451725479,D,1766,Incorrect
2,new_learn,10,330,D,63.255550925264565,23.248188916810662,3.162777546263228,0.3651816975516001,B,3420,Correct
2,new_learn,10,331,C,89.49846422855177,57.56535930957081,4.474923211427589,0.9042345495410221,C,3502,Correct
2,new_learn,10,332,C,77.03044632151511,51.47910418795855,3.851522316075756,0.8086318776513707,C,950,Incorrect
2,new_learn,10,333,C,65.63473071929887,69.9901985525621,3.281736535964944,1.0994034679801004,B,3301,Correct
2,new_learn,10,334,C,61.71227959757978,29.804623405724463,3.085613979878989,0.4681699296721718,C,1477,Correct
2,new_learn,10,335,D,60.93518694272974,5.558355870654658,3.046759347136487,0.08731044984643187,C,1929,Incorrect
2,new_learn,10,336,C,63.326442115814274,73.20605414194918,3.166322105790714,1.149918009453221,C,2884,Incorrect
2,new_learn,10,337,D,52.17281246610683,50.18516325659665,2.608640623305342,0.7883067010306423,C,4936,Incorrect
2,new_learn,10,338,A,35.28125652106413,45.29662862559158,1.7640628260532065,0.7115177786127181,A,1781,Correct
2,new_learn,10,339,C,96.08880220349853,65.1799625349433,4.804440110174927,1.023844457305179,B,3029,Incorrect
2,new_learn,10,340,A,49.42202900372067,58.18104318331699,2.4711014501860333,0.9139056892144958,B,2213,Incorrect
2,new_learn,10,341,C,66.54848276803179,25.832357515501688,3.32742413840159,0.405773722978026,A,2175,Correct
2,new_learn,10,342,A,50.61983075739014,57.34793742729939,2.530991537869507,0.9008192946006546,D,3030,Incorrect
2,new_learn,10,343,B,46.88769503762385,81.15063837809498,2.344384751881192,1.2747112468137258,C,1219,Correct
2,new_learn,10,344,D,60.03090345956798,31.36943574118076,3.001545172978399,0.49274994435875286,B,1032,Incorrect
2,new_learn,10,345,C,67.89769057353206,39.71122514766326,3.3948845286766027,0.6237824659447457,A,1405,Incorrect
2,new_learn,10,346,D,51.04052710039194,7.4110662152369144,2.5520263550195974,0.11641275588527902,D,1197,Incorrect
2,new_learn,10,347,B,50.91131401192635,82.4588690902588,2.5455657005963177,1.2952608867863975,B,5653,Correct
2,new_learn,10,348,A,32.43598156637423,25.518106881601266,1.6217990783187117,0.4008374855637884,A,853,Incorrect
2,new_learn,10,349,A,34.26860963263758,59.24124703109861,1.7134304816318788,0.9305593323119876,A,1653,Correct
2,new_learn,10,350,C,92.21635700948381,60.618991541877016,4.610817850474191,0.9522008924799132,D,2150,Incorrect
2,new_learn,10,351,A,17.234057711655115,72.72393544094021,0.8617028855827558,1.1423449066069808,A,814,Incorrect
2,new_learn,10,352,C,81.93772852724058,61.15685449724848,4.096886426362029,0.9606496240260787,B,7715,Incorrect
2,new_learn,10,353,A,6.118576511359841,66.46809759155462,0.30592882556799206,1.044078435458587,A,637,Correct
2,new_learn,10,354,C,81.893024266063,35.98172118292689,4.094651213303149,0.5651995546589967,C,2037,Incorrect
2,new_learn,10,355,B,73.6019750531474,83.02503624314726,3.68009875265737,1.3041542196274887,B,2149,Incorrect
2,new_learn,10,356,D,51.11219454773193,34.96934968324774,2.5556097273865963,0.5492972603285183,B,2999,Incorrect
2,new_learn,10,357,D,64.10791089431173,15.100941526139625,3.205395544715586,0.23720503480404642,D,1556,Incorrect
2,new_learn,10,358,A,44.88064185218907,42.46422522442768,2.2440320926094532,0.6670264900272218,C,4144,Incorrect
2,new_learn,10,359,B,36.94831517712473,92.77401251708824,1.8474157588562363,1.4572907808386595,B,1404,Incorrect
2,new_learn,10,360,D,47.667140532175296,2.0417206599235307,2.3833570266087647,0.03207127312949134,D,1145,Incorrect
2,new_learn,10,361,D,67.84305765963057,37.65444179368539,3.3921528829815286,0.5914745885703325,C,1219,Incorrect
2,new_learn,10,362,C,89.44252710935187,36.220973788984125,4.472126355467593,0.568957725806705,B,1917,Incorrect
2,new_learn,10,363,A,9.855096102344959,39.89507098492965,0.49275480511724795,0.6266703096034916,A,615,Incorrect
2,new_learn,10,364,D,43.71988622040709,21.226829461673724,2.1859943110203544,0.33343025747898775,C,5205,Incorrect
2,new_learn,10,365,D,49.50624075550905,41.30165675688818,2.4753120377754523,0.6487649072426358,B,1663,Incorrect
2,new_learn,10,366,C,96.75551124033409,39.45574048851372,4.837775562016705,0.6197693223033003,D,982,Incorrect
2,new_learn,10,367,C,60.390350030104024,66.11760689488774,3.0195175015052014,1.038572940469586,B,1078,Incorrect
2,new_learn,10,368,C,70.85415362662339,56.691122646265086,3.5427076813311693,0.8905020721463217,B,3309,Incorrect
2,new_learn,10,369,D,33.594938337251634,32.663780901799306,1.6797469168625816,0.5130814705977964,A,828,Incorrect
2,new_learn,10,370,A,20.089375738740294,70.01020274602784,1.0044687869370148,1.099717693116265,A,1408,Correct
2,new_learn,10,371,D,61.668287400088545,1.867926068767769,3.0834143700044274,0.029341314075448433,D,3493,Correct
2,new_learn,10,372,B,67.9554878728982,55.42184190862366,3.39777439364491,0.870564256942735,B,2059,Correct
2,new_learn,10,373,A,10.12639467334272,42.12026094978659,0.5063197336671359,0.661623511835673,A,5086,Incorrect
2,new_learn,10,374,A,22.88590660888414,29.560023988338997,1.1442953304442072,0.4643277710085192,A,1165,Incorrect
2,new_learn,10,375,C,75.3705621843072,39.11551451494563,3.7685281092153606,0.6144250652076905,C,1654,Correct
2,new_learn,10,376,D,49.482437329002785,50.26331197702836,2.474121866450139,0.7895342582606207,C,1166,Incorrect
2,new_learn,10,377,A,42.653392563554874,40.612502283936685,2.1326696281777435,0.6379396940955709,B,908,Incorrect
2,new_learn,10,378,A,13.301987357222133,41.72595342150197,0.6650993678611067,0.6554297436651024,A,832,Correct
2,new_learn,10,379,B,50.13014123998826,76.78323538806758,2.506507061999413,1.2061082410700448,D,2589,Incorrect
2,new_learn,10,380,C,80.20908956243203,39.611688305931565,4.010454478121601,0.6222189448910167,D,3439,Incorrect
2,new_learn,10,381,A,26.727196182252207,59.97334376775853,1.3363598091126105,0.942059080960027,A,1811,Incorrect
2,new_learn,10,382,D,33.05664399456701,17.028899542472757,1.6528321997283506,0.267489328506755,D,2680,Correct
2,new_learn,10,383,C,53.69195879189819,51.781971079737104,2.684597939594909,0.8133892996625062,C,4037,Correct
2,new_learn,10,384,B,37.370247579729096,74.79812457791249,1.8685123789864548,1.17492619338132,B,2629,Incorrect
2,new_learn,10,385,B,44.581012290709204,72.44599549511989,2.2290506145354603,1.1379790361473394,C,2582,Incorrect
2,new_learn,10,386,B,28.44551192990649,63.03610183936086,1.4222755964953244,0.9901687722473705,A,1605,Correct
2,new_learn,10,387,D,43.8649719609223,32.90863669499722,2.193248598046115,0.5169276564032939,D,2676,Incorrect
2,new_learn,10,388,A,28.484818186416234,62.660560791898064,1.424240909320812,0.9842697872682179,B,2278,Incorrect
2,new_learn,10,389,B,69.2640124299283,67.7986253811502,3.463200621496415,1.0649783171045397,B,3535,Incorrect
2,new_learn,10,390,A,5.331276539292013,38.819186804021854,0.2665638269646006,0.6097703604092245,A,1091,Incorrect
2,new_learn,10,391,A,43.15917099629982,44.06189074976917,2.157958549814991,0.6921225614137545,C,4384,Incorrect
2,new_learn,10,392,C,75.17168843344881,41.460397956699175,3.7585844216724404,0.651258408178377,C,1022,Incorrect
2,new_learn,10,393,D,70.7762123688318,12.895467683979216,3.53881061844159,0.20256153270296842,D,957,Correct
2,new_learn,10,394,D,43.25591747635886,42.8948400585359,2.162795873817943,0.6737905720240278,B,829,Incorrect
2,new_learn,10,395,A,30.291771114667,70.98289915579085,1.51458855573335,1.1149967725916883,B,4615,Incorrect
2,new_learn,10,396,C,59.89553828713126,57.21900601695722,2.9947769143565632,0.8987940447429149,B,3335,Incorrect
2,new_learn,10,397,C,94.61944748447256,45.29470762490479,4.7309723742236285,0.7114876036044921,C,1764,Incorrect
2,new_learn,10,398,C,63.59111924358357,39.34406570808808,3.1795559621791782,0.6180151389544181,B,2125,Incorrect
2,new_learn,10,399,D,45.62856128812711,38.86739846765353,2.2814280644063554,0.6105276674506376,B,4236,Correct
2,new_learn,10,400,A,21.32414288308382,44.80475846858304,1.066207144154191,0.7037915002538278,A,2453,Correct
2,new_learn,10,401,A,9.243427562327192,59.53073922358067,0.46217137811635955,0.9351066650378539,B,1134,Incorrect
2,new_learn,10,402,A,27.206809159169268,58.13062041559403,1.3603404579584635,0.9131136502312353,B,2647,Correct
2,new_learn,10,403,D,44.20920707276288,37.954374958535354,2.210460353638144,0.5961859277066354,B,1550,Incorrect
2,new_learn,10,404,D,59.74227765345982,21.796675076201073,2.9871138826729915,0.34238137146038516,D,2966,Incorrect
2,new_learn,10,405,A,4.074144252026166,64.07922002506903,0.20370721260130828,1.0065540343926043,B,1843,Incorrect
2,new_learn,10,406,C,77.72194815418875,54.49307481658692,3.8860974077094372,0.8559752175765422,C,2385,Correct
2,new_learn,10,407,A,48.07082368359009,46.665996254557285,2.4035411841795047,0.7330277550288298,B,3458,Incorrect
2,new_learn,10,408,A,28.214417428997113,45.18409232371855,1.4107208714498558,0.7097500625165858,B,1553,Incorrect
2,new_learn,10,409,C,59.74387548152107,41.79185446678334,2.9871937740760535,0.6564649148637016,B,2731,Incorrect
2,new_learn,10,410,B,56.44192136153206,89.75400688485652,2.8220960680766027,1.409852643298565,D,1015,Incorrect
2,new_learn,10,411,C,60.92921367796056,46.577788037223584,3.0464606838980277,0.7316421835910208,C,1534,Incorrect
2,new_learn,10,412,B,55.28715455501661,57.13227960851481,2.7643577277508307,0.8974317495047403,C,3045,Correct
2,new_learn,10,413,D,59.12652604574306,48.553758797500294,2.956326302287153,0.7626806597119885,C,1718,Incorrect
2,new_learn,10,414,B,44.712769912755526,62.38953841906104,2.2356384956377764,0.9800125777909016,C,8932,Correct
2,new_learn,10,415,D,63.48481952213463,15.326748645720917,3.174240976106731,0.2407520047440707,D,1925,Incorrect
2,new_learn,10,416,B,40.09065090534158,69.13753018016484,2.0045325452670792,1.0860097845067427,B,3237,Incorrect
2,new_learn,10,417,D,46.232326945724694,29.123730923537316,2.3116163472862348,0.4574744955725536,B,1343,Incorrect
2,new_learn,10,418,D,53.19715655480472,29.304990398336138,2.659857827740236,0.46032171274466116,B,3709,Incorrect
2,new_learn,10,419,C,63.44629623958618,46.17433092764844,3.172314811979309,0.7253046941336214,C,1102,Correct
2,new_learn,10,420,A,26.710455767490295,35.95939900266879,1.3355227883745147,0.564848918671442,A,1005,Correct
2,new_learn,10,421,C,67.88278644211687,26.247043268763196,3.3941393221058433,0.4122875915579995,C,5247,Incorrect
2,new_learn,10,422,B,72.33703152137545,86.55044449299336,3.6168515760687727,1.3595312029205955,B,2107,Correct
2,new_learn,10,423,C,53.719116718261084,42.924543819189175,2.685955835913054,0.6742571576052893,A,3545,Incorrect
2,new_learn,10,424,C,79.59233324693024,49.80917105355554,3.979616662346512,0.7824006293162371,C,2123,Correct
2,new_learn,10,425,C,66.70738533710937,32.28634265658702,3.3353692668554684,0.5071526845060826,C,2461,Correct
2,new_learn,10,426,D,40.98508868488453,43.04237275291085,2.0492544342442267,0.676108010168091,A,1224,Incorrect
2,new_learn,10,427,C,91.92226025060629,51.772564516971094,4.5961130125303145,0.8132415417201,D,3046,Incorrect
2,new_learn,10,428,C,84.98295233673252,50.21240153159089,4.249147616836626,0.7887345588537341,B,3061,Correct
2,new_learn,10,429,B,64.48055078120606,91.17075477936045,3.224027539060303,1.4321068671853763,B,2006,Incorrect
2,new_learn,10,430,B,64.91340980020527,83.97283674067222,3.2456704900102635,1.3190422350279545,C,797,Correct
2,new_learn,10,431,D,61.15305658290176,39.25387360680377,3.057652829145088,0.616598404740385,A,2247,Incorrect
2,new_learn,10,432,C,59.00636049102146,63.070038530953525,2.950318024551073,0.990701848552344,C,1381,Correct
2,new_learn,10,433,B,57.495987695974215,90.47249852857016,2.8747993847987106,1.4211386836463467,C,1859,Correct
2,new_learn,10,434,B,46.30251775702714,64.05151173065505,2.315125887851357,1.0061187935217317,C,4129,Incorrect
2,new_learn,10,435,B,60.71562960990073,71.65881225283975,3.0357814804950363,1.1256139906924583,B,742,Incorrect
2,new_learn,10,436,A,29.863538988686674,76.34755575678284,1.4931769494343337,1.1992646014252304,A,756,Correct
2,new_learn,10,437,C,75.1260492726533,52.456406655261425,3.756302463632665,0.82398330890944,C,3807,Incorrect
2,new_learn,10,438,C,65.68808797315755,67.78743076494447,3.2844043986578777,1.0648024724843814,B,1126,Incorrect
2,new_learn,10,439,B,72.63003603414924,61.70447408560783,3.6315018017074623,0.9692516124048365,B,1468,Correct
2,new_learn,10,440,D,72.59888769295296,36.396382975954545,3.629944384647648,0.571713046872497,C,1679,Correct
2,new_learn,10,441,A,21.946590495485093,55.190736437469766,1.0973295247742547,0.8669340606908277,A,3260,Correct
2,new_learn,10,442,C,76.97406046675052,30.989358449097864,3.848703023337526,0.4867797042157332,C,2597,Correct
2,new_learn,10,443,D,29.993699889425947,39.44927032015491,1.4996849944712975,0.6196676891363826,B,1198,Correct
2,new_learn,10,444,B,48.988136418760355,82.54563917448219,2.4494068209380178,1.2966238680821354,D,669,Incorrect
2,new_learn,10,445,C,90.10774838675452,40.40637117596785,4.505387419337726,0.6347017942232148,A,3862,Correct
2,new_learn,10,446,C,65.98132903433856,63.73443400523354,3.2990664517169277,1.001138148257726,C,1043,Incorrect
2,new_learn,10,447,C,81.17482380692293,44.697986323381514,4.058741190346146,0.702114327318962,B,3063,Incorrect
2,new_learn,10,448,B,48.515722395946966,88.6598712158325,2.4257861197973485,1.3926660003993825,B,4044,Correct
2,new_learn,10,449,D,67.16394513503077,34.100999641283046,3.3581972567515384,0.5356572497656149,C,6661,Incorrect
2,new_learn,10,450,A,26.373167315541934,66.55189694530962,1.3186583657770967,1.0453947526292486,A,863,Incorrect
2,new_learn,10,451,C,54.897995780526784,34.883226289120685,2.7448997890263396,0.5479444372170594,B,1508,Correct
2,new_learn,10,452,D,30.80574626002881,37.26646065071174,1.5402873130014405,0.5853801950278457,B,1424,Incorrect
2,new_learn,10,453,C,53.86652545414735,37.37379657357028,2.6933262727073672,0.5870662237614388,B,1606,Incorrect
2,new_learn,10,454,D,67.88085877641346,41.12544242721322,3.394042938820673,0.6459969390248154,C,2173,Incorrect
2,new_learn,10,455,D,68.56374872852419,21.990425872160046,3.4281874364262093,0.34542480184644453,D,2419,Incorrect
2,new_learn,10,456,C,63.3006096954174,59.73929680752467,3.1650304847708703,0.9383826799056985,B,6245,Incorrect
2,new_learn,10,457,A,3.7565151463636752,35.17930580519282,0.18782575731818377,0.5525952433799126,A,654,Incorrect
2,new_learn,10,458,B,58.77241116550697,69.51160350343086,2.9386205582753484,1.0918857145281247,B,7399,Incorrect
2,new_learn,10,459,D,28.5290168777414,30.300198631344113,1.42645084388707,0.47595440711271086,A,971,Incorrect
2,new_learn,10,460,C,66.82945146675407,34.14370889542151,3.341472573337703,0.5363281251608234,C,8814,Incorrect
2,new_learn,10,461,B,61.455059849051594,80.19101709550542,3.07275299245258,1.2596375509556668,B,3255,Incorrect
2,new_learn,10,462,A,9.354147486601859,29.415698488558387,0.46770737433009296,0.462060711359337,A,1118,Correct
2,new_learn,10,463,B,58.771465115412084,82.66192549883947,2.938573255770604,1.2984504893937046,C,2460,Correct
2,new_learn,10,464,A,22.349655755258247,24.956268924484238,1.1174827877629125,0.39201215557085467,B,876,Incorrect
2,new_learn,10,465,B,35.39095550152668,83.58113440390687,1.7695477750763342,1.3128893891100746,C,1174,Incorrect
2,new_learn,10,466,B,63.31686327595989,94.33740271480313,3.165843163797995,1.4818484566378367,C,2196,Incorrect
2,new_learn,10,467,B,73.55570022784832,81.81453334316832,3.677785011392416,1.2851396845388738,C,1695,Incorrect
2,new_learn,10,468,B,61.41683812784092,92.97116490012704,3.070841906392046,1.4603876432296217,C,2204,Incorrect
2,new_learn,10,469,B,45.68992682409929,63.92476081702319,2.2844963412049646,1.0041277948262235,B,804,Correct
2,new_learn,10,470,C,64.13494963437597,51.559573905476356,3.2067474817187986,0.8098958930183225,B,1041,Incorrect
2,new_learn,10,471,D,62.77037100270972,27.97949479750931,3.1385185501354864,0.4395008765350454,D,5619,Incorrect
2,new_learn,10,472,C,74.75218765005833,43.81943301756438,3.7376093825029164,0.6883140442622514,C,1231,Incorrect
2,new_learn,10,473,C,86.87819552039564,32.965809668168035,4.343909776019782,0.5178257273657804,A,1428,Incorrect
2,new_learn,10,474,A,18.36772007342892,28.186252140291035,0.9183860036714461,0.4427486132808396,A,1393,Correct
2,new_learn,10,475,C,69.59368020867082,57.016844544380774,3.479684010433541,0.8956184997574895,C,2787,Correct
2,new_learn,10,476,C,60.96326533341356,38.85944438963844,3.048163266670678,0.6104027250853461,C,904,Incorrect
2,new_learn,10,477,C,69.46860753420823,49.96712154406798,3.4734303767104113,0.7848817098193611,D,2086,Incorrect
2,new_learn,10,478,A,25.57322032191036,58.70706638446651,1.2786610160955179,0.9221684423362413,B,973,Correct
2,new_learn,10,479,A,4.914935430866862,45.898699894042345,0.2457467715433431,0.7209750919822303,B,1413,Incorrect
2,new_learn,10,480,A,44.581662266839196,52.286705800570864,2.22908311334196,0.8213176541174211,C,2838,Incorrect
2,new_learn,10,481,B,44.425104656352005,55.731950804378016,2.2212552328176,0.8754354360863087,D,996,Correct
2,new_learn,10,482,D,51.13797742757614,4.51947880733524,2.5568988713788072,0.07099180709589575,D,1742,Correct
2,new_learn,10,483,A,39.40615649067885,34.58238848874866,1.9703078245339427,0.543218888099205,B,1461,Incorrect
2,new_learn,10,484,C,84.52093973162059,36.56339688952466,4.2260469865810295,0.5743364952920929,C,3940,Incorrect
2,new_learn,10,485,A,18.69636433584377,44.22202218106434,0.9348182167921886,0.694637900054583,A,1758,Correct
2,new_learn,10,486,D,60.05824532917247,39.952830964798444,3.002912266458624,0.627577601245628,B,1237,Incorrect
2,new_learn,10,487,C,87.05880542929047,51.073426716539515,4.352940271464524,0.8022595108316861,C,1197,Correct
2,new_learn,10,488,D,51.93180527394724,1.6724897624656592,2.5965902636973617,0.026271407754831264,D,1981,Incorrect
2,new_learn,10,489,C,82.72483937315148,62.66827337182808,4.136241968657575,0.9843909361904597,B,3664,Incorrect
2,new_learn,10,490,B,25.257817410554576,67.41451556359483,1.2628908705277289,1.0589447341995215,A,1838,Incorrect
2,new_learn,10,491,A,19.429103579184133,36.12933110789646,0.9714551789592066,0.5675182059384035,A,1132,Correct
2,new_learn,10,492,A,24.060835990967554,31.903829831698296,1.2030417995483775,0.5011441871032113,A,1348,Incorrect
2,new_learn,10,493,C,50.5084720007962,39.38300301483973,2.52542360003981,0.6186267647386258,B,2023,Incorrect
2,new_learn,10,494,B,59.985922389254114,99.5796557529383,2.999296119462706,1.5641935748021578,B,2266,Correct
2,new_learn,10,495,A,2.00981714640848,58.07133063506507,0.100490857320424,0.9121823285365216,A,975,Correct
2,new_learn,10,496,D,54.447455333719674,44.17407583792914,2.722372766685984,0.6938847606577828,C,1078,Correct
2,new_learn,10,497,D,35.90974118955356,37.3947739088971,1.795487059477678,0.5873957349742119,B,1213,Incorrect
2,new_learn,10,498,C,54.20971788932876,55.145668038888935,2.710485894466438,0.8662261279413748,C,1390,Incorrect
2,new_learn,10,499,D,52.11149294115401,48.36304749523893,2.6055746470577,0.7596849735812844,D,2436,Correct
2,new_learn,10,500,C,70.82505446884686,36.72880626624311,3.541252723442343,0.5769347397057606,B,1670,Incorrect
2,new_learn,10,501,B,44.25753958589744,78.9141625525421,2.212876979294872,1.239580766696285,D,2390,Incorrect
2,new_learn,10,502,D,67.90625670150014,7.216821551306598,3.395312835075007,0.11336156783926653,D,2278,Correct
2,new_learn,10,503,A,19.73633306604547,64.48945763017564,0.9868166533022736,1.01299803162475,A,1744,Correct
2,new_learn,10,504,C,88.6447714327573,30.87296516587125,4.432238571637865,0.48495140279817356,C,4638,Incorrect
2,new_learn,10,505,A,28.583284520399634,40.65032976543011,1.4291642260199817,0.6385338867853887,B,1141,Incorrect
2,new_learn,10,506,A,26.473426285860516,66.81563914756205,1.3236713142930259,1.0495376054544374,B,4391,Incorrect
2,new_learn,10,507,D,37.466916716707736,21.120400802133968,1.873345835835387,0.3317584800042802,C,1682,Incorrect
2,new_learn,10,508,C,89.97789399738383,31.798316734632863,4.498894699869192,0.4994867912502199,D,1031,Incorrect
2,new_learn,10,509,C,73.75864727699391,66.9018026886755,3.6879323638496952,1.050891059193284,D,2485,Incorrect
2,new_learn,10,510,B,55.633247152430336,62.348564847452124,2.781662357621517,0.979368966433112,C,5982,Correct
2,new_learn,10,511,B,47.722934535874636,48.28154684939787,2.3861467267937315,0.7584047644300989,C,826,Correct
2,new_learn,10,512,D,71.90865539564572,27.386382453296577,3.595432769782286,0.43018428961838473,C,925,Incorrect
2,new_learn,10,513,B,35.40745102760298,66.56556692123041,1.770372551380149,1.045609480108886,C,1629,Incorrect
2,new_learn,10,514,C,51.256168720401845,49.42104355415923,2.562808436020092,0.7763039368124393,B,1060,Incorrect
2,new_learn,10,515,B,51.433324868640895,71.94971745305205,2.5716662434320448,1.1301835188918483,B,984,Incorrect
2,new_learn,10,516,C,51.61330706997706,50.959071661369315,2.580665353498853,0.8004632258255683,C,1450,Incorrect
2,new_learn,10,517,B,33.35685722361258,72.64559064437317,1.6678428611806289,1.1411142694202707,B,1368,Correct
2,new_learn,10,518,B,68.3795365873774,56.797122343114154,3.4189768293688703,0.8921671114908408,B,1644,Incorrect
2,new_learn,10,519,B,69.04171681746084,85.27107792442496,3.4520858408730417,1.3394349598552813,C,3356,Incorrect
2,new_learn,10,520,A,22.039975751915335,30.52538240720193,1.1019987875957669,0.47949158559242344,A,1021,Incorrect
2,new_learn,10,521,A,6.026125889928327,62.5360873987492,0.3013062944964163,0.9823145637807986,A,877,Incorrect
2,new_learn,10,522,B,64.66394741907662,92.75680398428298,3.2331973709538313,1.4570204698374594,B,5414,Incorrect
2,new_learn,10,523,A,30.204116764060416,24.156527500314205,1.5102058382030208,0.37944984665613446,A,1823,Correct
2,new_learn,10,524,B,35.2309394046923,81.29755368010896,1.761546970234615,1.277018986981261,D,1271,Incorrect
2,new_learn,10,525,D,66.40137678588279,35.026398959176426,3.3200688392941395,0.5501933882592692,D,2916,Correct
2,new_learn,10,526,B,47.07336196585829,50.08343983208103,2.3536680982929146,0.786708833214861,D,1406,Incorrect
2,new_learn,10,527,C,64.3847003642932,32.99555499835232,3.2192350182146594,0.5182929659197081,D,1055,Incorrect
2,new_learn,10,528,D,54.08214464035581,11.259684169393054,2.7041072320177904,0.17686670534153254,D,1252,Correct
2,new_learn,10,529,D,32.99202902560699,28.986883492677713,1.6496014512803496,0.4553249011552977,D,2336,Incorrect
2,new_learn,10,530,B,27.051736639937687,61.219400981964434,1.3525868319968846,0.9616321019105362,C,2148,Incorrect
2,new_learn,10,531,C,80.71300413783764,74.32802414379935,4.035650206891882,1.1675418730300242,B,1164,Incorrect
2,new_learn,10,532,C,69.74318957341426,72.76451547210593,3.487159478670713,1.142982336245944,B,7308,Correct
2,new_learn,10,533,C,50.946699978159785,59.94699130455916,2.5473349989079894,0.9416451374360714,A,2327,Incorrect
2,new_learn,10,534,A,24.3701244539123,50.80203236671108,1.218506222695615,0.7979964583534521,A,1596,Correct
2,new_learn,10,535,B,51.8443676561133,67.82732850332854,2.592218382805665,1.0654291846933928,C,3508,Correct
2,new_learn,10,536,B,28.15088022619197,61.18174789302681,1.4075440113095985,0.9610406485725791,C,1569,Correct
2,new_learn,10,537,B,36.50160781470211,67.09936967679816,1.8250803907351056,1.0539944341856742,B,989,Correct
2,new_learn,10,538,B,42.20310623341976,85.636821735774,2.110155311670988,1.3451800502094318,B,1661,Correct
2,new_learn,10,539,B,41.2307597368889,62.9405062385507,2.061537986844445,0.9886671600612671,B,3358,Incorrect
2,new_learn,10,540,C,97.83097898836311,36.29782577302383,4.891548949418155,0.5701649139490695,D,1069,Incorrect
2,new_learn,10,541,A,10.511327586288784,65.571810418685,0.5255663793144393,1.0299995894696172,A,668,Incorrect
2,new_learn,10,542,C,93.38349630763969,49.13474153100436,4.669174815381984,0.771806715149183,C,8294,Correct
2,new_learn,10,543,D,73.60941863271788,32.07823654964527,3.6804709316358935,0.5038837614224059,C,1751,Incorrect
2,new_learn,10,544,C,78.53455957814421,67.45017191084386,3.926727978907211,1.0595048227923785,B,1075,Incorrect
2,new_learn,10,545,A,29.749175343589254,68.41449790519208,1.4874587671794626,1.0746524200899286,C,1086,Incorrect
2,new_learn,10,546,B,64.89914087900087,93.27960684971995,3.2449570439500435,1.4652326380441218,B,1951,Correct
2,new_learn,10,547,B,63.677149248015404,85.64305291706421,3.1838574624007703,1.3452779293762542,B,2404,Correct
2,new_learn,10,548,C,97.0518065165913,50.553760161337514,4.852590325829564,0.7940966076709914,C,1750,Incorrect
2,new_learn,10,549,C,67.07050737174299,69.6193160371577,3.35352536858715,1.0935776590514035,B,4870,Incorrect
2,new_learn,10,550,A,38.276578868849874,60.32585755490826,1.9138289434424935,0.9475963545800206,B,8021,Incorrect
2,new_learn,10,551,C,72.93682213066646,47.21113989297529,3.6468411065333224,0.7415908512768559,C,2327,Correct
2,new_learn,10,552,B,56.283151391027985,52.711159731787085,2.8141575695513996,0.827984960877902,C,1898,Incorrect
2,new_learn,10,553,A,19.579695461772744,47.32529410395221,0.9789847730886372,0.7433839814297633,A,1086,Incorrect
2,new_learn,10,554,D,59.148126103309274,30.99669574352026,2.9574063051654638,0.48689495816700634,B,1280,Incorrect
2,new_learn,10,555,B,63.132735153598006,66.43647563860833,3.1566367576799,1.043581718983246,C,5405,Incorrect
2,new_learn,10,556,A,8.30454393682734,48.467364879541016,0.41522719684136705,0.76132358722211,A,2013,Incorrect
2,new_learn,10,557,B,41.85459545692995,94.33579975627507,2.0927297728464977,1.4818232774241575,B,2430,Incorrect
2,new_learn,10,558,B,68.85295471630704,91.75286279974185,3.442647735815352,1.441250598587506,B,3364,Incorrect
2,new_learn,10,559,B,47.29367190928564,75.47954146667784,2.364683595464282,1.1856298648402064,C,2919,Incorrect
2,new_learn,10,560,D,38.9543181347868,13.331717585510097,1.9477159067393401,0.20941413013186186,D,1222,Incorrect
2,new_learn,10,561,B,50.12936542462784,86.22442588100603,2.5064682712313924,1.354410114538831,B,2197,Correct
2,new_learn,10,562,B,67.07084744591175,65.21452263100943,3.3535423722955873,1.0243873260247225,C,1574,Incorrect
2,new_learn,10,563,C,84.90618599925082,61.45191043440702,4.245309299962542,0.9652843518489553,D,1693,Incorrect
2,new_learn,10,564,C,83.256656339215,46.82562826203826,4.16283281696075,0.7355352487387299,D,741,Incorrect
2,new_learn,10,565,A,12.683902183410881,31.109396318398158,0.634195109170544,0.488665254657465,A,999,Incorrect
2,new_learn,10,566,B,47.52146755846798,77.33593710563085,2.376073377923399,1.2147900593476608,C,1343,Incorrect
2,new_learn,10,567,C,53.61089264705046,54.94278657901216,2.6805446323525235,0.8630392734218822,B,2179,Incorrect
2,new_learn,10,568,B,61.58018383697584,95.41206773067135,3.079009191848792,1.4987292552324445,B,1438,Correct
2,new_learn,10,569,B,53.51339946788599,64.56209910641417,2.675669973394299,1.0141390812652344,B,1733,Incorrect
2,new_learn,10,570,C,83.28694799224955,69.89756071978965,4.164347399612478,1.0979483163056885,B,1366,Correct
2,new_learn,10,571,C,72.99156119111329,51.89781058560892,3.649578059555665,0.8152089023657179,C,1644,Correct
2,new_learn,10,572,A,15.633669433218039,50.89756801190722,0.781683471660902,0.799497128758973,B,1105,Incorrect
2,new_learn,10,573,A,42.125996162047414,37.09119149445536,2.1062998081023707,0.5826270735593659,C,1979,Incorrect
2,new_learn,10,574,B,31.404815905045904,88.42752193233888,1.5702407952522952,1.3890162663889305,B,1967,Incorrect
2,new_learn,10,575,A,35.77142460531539,61.93369895860408,1.7885712302657695,0.9728522682899622,C,1631,Correct
2,new_learn,10,576,C,53.57152343717018,50.959699130070774,2.678576171858509,0.8004730820808826,C,947,Incorrect
2,new_learn,10,577,A,24.00786933454139,27.612205882992388,1.2003934667270695,0.4337315157570888,A,2048,Incorrect
2,new_learn,10,578,B,62.614318381986365,54.914271828889284,3.1307159190993183,0.8625913647743576,B,6534,Correct
2,new_learn,10,579,C,97.23296360763703,54.6040219209096,4.861648180381851,0.8577179706159281,B,916,Correct
2,new_learn,10,580,A,41.34553930754592,44.36329913799869,2.067276965377296,0.6968570733047154,C,6405,Incorrect
2,new_learn,10,581,C,77.45228053347654,42.84715442255901,3.872614026673827,0.6730415278056939,D,791,Incorrect
2,new_learn,10,582,C,74.97984435273715,43.10985953582941,3.7489922176368573,0.6771680900752477,C,1051,Correct
2,new_learn,10,583,A,41.170880915255665,36.14801163631359,2.0585440457627833,0.5678116389926056,C,1592,Incorrect
2,new_learn,10,584,D,53.440039173335904,45.87770175575551,2.672001958666795,0.7206452539973253,B,1571,Correct
2,new_learn,10,585,A,5.505259929695239,34.49872865306304,0.27526299648476193,0.5419047624732528,A,966,Incorrect
2,new_learn,10,586,B,36.397102927745,92.49205972435752,1.8198551463872503,1.4528618767271495,D,1829,Incorrect
2,new_learn,10,587,C,52.31733610728469,43.32619287069045,2.6158668053642344,0.6805662461528779,B,10838,Incorrect
2,new_learn,10,588,A,13.66919408075058,30.231413950776748,0.683459704037529,0.474873939876961,A,1951,Incorrect
2,new_learn,10,589,A,8.172719661226957,51.04656507082641,0.40863598306134785,0.801837569087508,A,1029,Correct
2,new_learn,10,590,D,31.474659560061582,31.18850793453516,1.573732978003079,0.4899079370178131,A,2277,Incorrect
2,new_learn,10,591,A,16.47625616215653,28.002402043415085,0.8238128081078265,0.4398607027123032,A,845,Incorrect
2,new_learn,10,592,C,80.506881174257,62.69316276772879,4.02534405871285,0.9847818979070295,C,2277,Correct
2,new_learn,10,593,A,28.773121629594932,36.42254932946743,1.4386560814797464,0.5721240669923336,B,1607,Incorrect
2,new_learn,10,594,C,95.2391275113855,63.49785613846429,4.761956375569275,0.9974219918165048,C,853,Incorrect
2,new_learn,10,595,C,65.4537925496782,40.1209677312948,3.27268962748391,0.6302186873977444,C,4447,Correct
2,new_learn,10,596,B,36.41266175469273,71.74347794434357,1.8206330877346364,1.1269439162646555,B,1852,Incorrect
2,new_learn,10,597,D,31.928501806085013,35.2096311244974,1.5964250903042505,0.5530715923816378,C,1438,Incorrect
2,new_learn,10,598,B,53.35689466980838,65.02178359376767,2.6678447334904196,1.0213597883074292,C,3694,Incorrect
2,new_learn,10,599,D,41.80121173117001,5.67074076058908,2.0900605865585002,0.08907578756939423,D,1215,Incorrect
2,new_learn,10,600,A,61.145137661577664,41.19637073441527,3.0572568830788835,0.6471110782690028,B,1334,Incorrect
2,new_learn,10,601,C,53.28129829795784,74.08677815666756,2.664064914897892,1.1637523899256181,C,2534,Correct
2,new_learn,10,602,B,7.722300259993702,34.3215655220951,0.3861150129996851,0.5391218905195735,A,957,Incorrect
2,new_learn,10,603,B,-1.2090231129372562,45.9609015206893,-0.060451155646862806,0.7219521528488072,A,757,Incorrect
2,new_learn,10,604,D,59.949639536882344,36.691439067872636,2.997481976844117,0.576347777126331,C,2662,Incorrect
2,new_learn,10,605,C,27.515131964233053,80.44946359936111,1.3757565982116526,1.2636972191449616,B,3448,Incorrect
2,new_learn,10,606,A,44.17937831869292,46.14666725284958,2.208968915934646,0.7248701541460246,C,1094,Incorrect
2,new_learn,10,607,A,50.273912661812105,5.450510245264205,2.5136956330906055,0.08561641472418965,A,2661,Correct
2,new_learn,10,608,A,51.828368833974004,9.12612824162801,2.5914184416987003,0.14335288719808445,A,1261,Correct
2,new_learn,10,609,C,45.32078588941073,74.49956198256461,2.2660392944705365,1.1702363831004123,B,1116,Incorrect
2,new_learn,10,610,B,15.118565504988043,37.99446402239663,0.7559282752494022,0.5968156452492146,D,1624,Incorrect
2,new_learn,10,611,C,51.67648086545362,50.39862713309411,2.583824043272681,0.7916597837616984,C,989,Correct
2,new_learn,10,612,A,49.82095101632111,27.86410755931512,2.4910475508160554,0.43768837803590094,C,780,Incorrect
2,new_learn,10,613,A,41.18452719997236,18.661238472141132,2.059226359998618,0.293130048454829,B,877,Incorrect
2,new_learn,10,614,B,34.5074347616213,50.57314226015787,1.725371738081065,0.7944010609673174,C,5087,Incorrect
2,new_learn,10,615,A,53.807400350818284,48.40938648491761,2.690370017540914,0.7604128647290308,D,3516,Incorrect
2,new_learn,10,616,D,68.08317961554152,40.200789192873614,3.4041589807770767,0.6314725199842184,B,958,Incorrect
2,new_learn,10,617,D,73.2363728403053,68.92727884870354,3.6618186420152647,1.082707164315111,C,1334,Incorrect
2,new_learn,10,618,B,5.888177239424337,44.50559026927446,0.29440886197121685,0.6990921771681501,A,894,Incorrect
2,new_learn,10,619,B,8.528145527804512,68.39837768177203,0.4264072763902256,1.0743992042125756,D,716,Incorrect
2,new_learn,10,620,B,38.46895216099822,40.885463567612774,1.923447608049911,0.6422273599131272,B,877,Correct
2,new_learn,10,621,A,55.3231998392524,10.42720101338231,2.76615999196262,0.16379009050572957,D,973,Incorrect
2,new_learn,10,622,B,8.137293568960686,69.25138101806766,0.4068646784480343,1.0877981492865452,B,1458,Correct
2,new_learn,10,623,A,34.79335698009362,10.010669264753469,1.739667849004681,0.15724722509833317,A,2228,Correct
2,new_learn,10,624,C,42.860223917958635,91.59494686777167,2.143011195897932,1.4387700609286946,D,902,Incorrect
2,new_learn,10,625,C,29.028361473706642,83.35039328796323,1.4514180736853322,1.3092649161364265,C,1068,Correct
2,new_learn,10,626,B,23.74811257947152,29.49958752340486,1.1874056289735762,0.46337843723728916,C,1279,Incorrect
2,new_learn,10,627,B,13.88963471178774,52.95328408099865,0.6944817355893871,0.8317882412615935,B,1399,Correct
2,new_learn,10,628,B,7.922105687457698,31.295177780440003,0.39610528437288495,0.49158350303908416,D,1957,Incorrect
2,new_learn,10,629,A,42.26027870346424,12.444880726750714,2.113013935173212,0.19548372932980623,D,1790,Incorrect
2,new_learn,10,630,A,62.29377148596121,22.698043988128667,3.114688574298061,0.356540041219815,A,1108,Correct
2,new_learn,10,631,A,34.11321770155169,18.380786587763893,1.7056608850775845,0.28872472055660425,B,2595,Incorrect
2,new_learn,10,632,A,67.53499922606701,16.761905222681104,3.376749961303351,0.26329539153871667,C,854,Incorrect
2,new_learn,10,633,D,75.07857571846898,60.45229110714876,3.753928785923449,0.9495823681744506,D,1717,Correct
2,new_learn,10,634,C,54.02077499673363,92.7669812803968,2.7010387498366817,1.4571803344309826,A,1893,Incorrect
2,new_learn,10,635,A,37.63481760543537,13.221628275166832,1.8817408802717688,0.20768485128879607,B,981,Incorrect
2,new_learn,10,636,B,28.424025068765722,31.126522345679984,1.4212012534382863,0.48893426966493386,C,878,Incorrect
2,new_learn,10,637,C,58.66751673795493,89.93876027746302,2.9333758368977465,1.4127547428032565,A,1140,Incorrect
2,new_learn,10,638,B,26.071298677224117,54.80834840748243,1.3035649338612059,0.8609275235616833,B,2196,Correct
2,new_learn,10,639,C,58.31828918047771,60.7592435832452,2.9159144590238855,0.9544039663939796,D,1869,Incorrect
2,new_learn,10,640,C,43.85018947168878,84.14647987201913,2.192509473584439,1.3217698149568835,C,1039,Correct
2,new_learn,10,641,B,35.25300664886176,56.94572074833364,1.7626503324430882,0.894501289781704,A,1357,Incorrect
2,new_learn,10,642,A,60.42061397614983,24.642209859543264,3.0210306988074915,0.38707892731479543,A,1174,Correct
2,new_learn,10,643,C,61.275521227588975,89.61162531019339,3.063776061379449,1.4076161187537235,C,1549,Correct
2,new_learn,10,644,B,23.055694818360966,51.83549589714637,1.1527847409180483,0.8142300655282946,B,519,Correct
2,new_learn,10,645,D,62.64725939259997,38.566263460329054,3.1323629696299986,0.6057974498168912,A,2191,Incorrect
2,new_learn,10,646,A,33.58768231901411,20.362820129328455,1.6793841159507052,0.3198584306233432,B,917,Incorrect
2,new_learn,10,647,D,75.10060331754279,30.43874416376627,3.7550301658771392,0.47813067524693653,C,2325,Incorrect
2,new_learn,10,648,C,44.76221723027418,54.78958615042541,2.238110861513709,0.8606328067170076,D,637,Incorrect
2,new_learn,10,649,B,4.676059922049994,37.64222407811387,0.23380299610249972,0.5912826731429167,B,2476,Correct
2,new_learn,10,650,A,44.37787720445749,15.491770241054011,2.2188938602228747,0.24334415790198133,C,1135,Incorrect
2,new_learn,10,651,C,53.071585166430665,50.04686447867388,2.6535792583215336,0.7861343089070292,C,2646,Correct
2,new_learn,10,652,C,32.73315178312227,79.54772508649586,1.6366575891561133,1.2495327437075794,D,1040,Incorrect
2,new_learn,10,653,A,36.61446968151345,22.362149486831907,1.8307234840756723,0.3512638227315394,A,2205,Correct
2,new_learn,10,654,D,63.534845893721865,62.17057186937945,3.1767422946860933,0.9765730592715937,C,973,Incorrect
2,new_learn,10,655,B,26.859785152943584,63.50096346124431,1.3429892576471791,0.997470801528595,B,789,Correct
2,new_learn,10,656,C,52.192329911909326,92.95297231636508,2.6096164955954664,1.4601018747921397,D,1168,Incorrect
2,new_learn,10,657,D,78.14885508274384,24.066786655978234,3.9074427541371914,0.3780402007696704,C,3957,Incorrect
2,new_learn,10,658,C,39.34036956632606,71.01441529676495,1.967018478316303,1.115491826976457,B,1581,Incorrect
2,new_learn,10,659,D,80.98691286926788,63.60949247250002,4.049345643463394,0.9991755712509067,D,861,Correct
2,new_learn,10,660,D,62.80604436291597,51.13909428231644,3.140302218145798,0.8032910145428057,D,1549,Correct
2,new_learn,10,661,C,67.29169015326026,77.5223772462441,3.364584507663013,1.2177186542280851,D,1366,Incorrect
2,new_learn,10,662,B,40.99108793861326,30.85169086863837,2.049554396930663,0.4846172269186881,B,776,Correct
2,new_learn,10,663,A,67.20787467826456,6.793950448738421,3.3603937339132277,0.1067191240930485,C,1594,Incorrect
2,new_learn,10,664,C,57.42971884308154,62.401047662738456,2.871485942154077,0.9801933645678284,C,1126,Correct
2,new_learn,10,665,D,62.625716342954654,42.45478392063343,3.1312858171477327,0.6668781863740203,C,877,Incorrect
2,new_learn,10,666,C,63.20579610766408,79.46940106250159,3.1602898053832043,1.2483024328156795,D,1222,Incorrect
2,new_learn,10,667,C,57.000669024636174,78.29442698749337,2.8500334512318086,1.2298459832046578,C,1124,Correct
2,new_learn,10,668,C,44.16368592920301,90.00301595441134,2.208184296460151,1.413764068616518,D,2893,Incorrect
2,new_learn,10,669,A,70.87824738680864,16.621833452138986,3.543912369340432,0.26109514931216454,A,1539,Correct
2,new_learn,10,670,D,75.52853966950858,73.36649006635196,3.776426983475429,1.1524381310605991,B,5841,Incorrect
2,new_learn,10,671,A,63.18514851542611,26.30312820653659,3.1592574257713055,0.4131685717004291,C,1067,Incorrect
2,new_learn,10,672,A,43.31003715775633,27.34049879229452,2.1655018578878162,0.4294635507567654,A,2487,Correct
2,new_learn,10,673,D,85.7690939074656,45.444343486784085,4.2884546953732805,0.7138380782264602,D,901,Correct
2,new_learn,10,674,D,66.75525449138641,25.061327187915403,3.33776272456932,0.3936624069138259,D,1028,Correct
2,new_learn,10,675,C,56.40116100484745,83.26935012169497,2.8200580502423724,1.3079918930575662,D,975,Incorrect
2,new_learn,10,676,D,88.5689253136095,39.55078106322218,4.428446265680475,0.6212622161597856,D,719,Correct
2,new_learn,10,677,C,48.321058720824965,91.32398737913469,2.416052936041248,1.4345138392340828,C,893,Correct
2,new_learn,10,678,D,68.31306094724468,64.5267612461102,3.4156530473622344,1.0135839954536117,B,1206,Incorrect
2,new_learn,10,679,D,52.535485735555945,40.53926059116362,2.6267742867777972,0.6367892162758092,A,1423,Incorrect
2,new_learn,10,680,A,31.302645610945536,9.124836922724837,1.5651322805472767,0.1433326032081862,B,1269,Incorrect
2,new_learn,10,681,B,43.142227549969725,47.04288858627421,2.1571113774984862,0.7389479659314109,C,1020,Incorrect
2,new_learn,10,682,D,64.03417135128561,55.01496562775162,3.2017085675642805,0.8641730592681974,C,1116,Incorrect
2,new_learn,10,683,C,28.654883441571265,66.45184628212442,1.4327441720785632,1.0438231604870014,B,1600,Incorrect
2,new_learn,10,684,D,64.455641876173,27.928189205933094,3.22278209380865,0.43869497018712583,A,1269,Incorrect
2,new_learn,10,685,B,43.64759406622805,40.41148081497908,2.182379703311403,0.6347820562451157,A,891,Incorrect
2,new_learn,10,686,B,6.299210966402782,35.94513747541536,0.3149605483201391,0.5646248991252003,B,814,Correct
2,new_learn,10,687,D,67.24854093709673,27.982651205038405,3.3624270468548367,0.4395504572685711,C,1790,Incorrect
2,new_learn,10,688,A,35.28786123855689,20.445112140338576,1.7643930619278447,0.3211510705095358,D,1239,Incorrect
2,new_learn,10,689,D,64.61010841187992,63.487324912835646,3.230505420593996,0.9972565677111637,C,1212,Incorrect
2,new_learn,10,690,D,85.19277299400542,74.2491005563721,4.259638649700271,1.166302144217742,A,3160,Incorrect
2,new_learn,10,691,B,49.611782124858664,47.85535837920107,2.4805891062429333,0.7517102115950242,A,820,Incorrect
2,new_learn,10,692,C,70.95532126840502,58.89046957276825,3.5477660634202506,0.9250493328813097,D,1071,Incorrect
2,new_learn,10,693,C,48.792871293794825,81.18792042216644,2.4396435646897414,1.2752968717925541,C,919,Correct
2,new_learn,10,694,D,83.23001379792062,42.65566103515421,4.161500689896031,0.6700335567102843,A,670,Incorrect
2,new_learn,10,695,A,38.93378402342563,34.05166526379284,1.9466892011712815,0.5348823071761517,A,861,Correct
2,new_learn,10,696,C,69.50589905621855,69.0509611068775,3.4752949528109274,1.0846499606834044,D,686,Incorrect
2,new_learn,10,697,B,9.787146425432965,63.41856871430457,0.48935732127164827,0.9961765478701936,B,1395,Correct
2,new_learn,10,698,D,64.25575827403789,69.22946850582564,3.212787913701894,1.0874539483491388,C,1072,Incorrect
2,new_learn,10,699,C,41.2935009836109,54.596473689343185,2.064675049180545,0.8575994032717449,B,1220,Incorrect
2,new_learn,10,700,B,29.640551984346544,43.41367966271899,1.482027599217327,0.6819404854684928,B,910,Correct
2,new_learn,10,701,C,47.55720704751828,72.43132314306739,2.3778603523759143,1.1377485633802444,C,1131,Correct
2,new_learn,10,702,A,34.07175090494743,12.645746236672137,1.7035875452473714,0.1986389173814498,D,1023,Incorrect
2,new_learn,10,703,D,77.27081592290823,34.47867313644663,3.8635407961454113,0.5415897311549224,D,869,Correct
2,new_learn,10,704,C,63.875604308276365,56.88516598879557,3.193780215413818,0.8935500978431806,D,1429,Incorrect
2,new_learn,10,705,A,47.21355875666422,31.47996973861215,2.360677937833211,0.4944862083302647,C,1159,Incorrect
2,new_learn,10,706,C,50.77991323501635,77.53397841367915,2.5389956617508176,1.2179008849400201,A,1124,Incorrect
2,new_learn,10,707,D,89.4579612980263,67.88909007596737,4.472898064901315,1.0663993332077741,D,756,Correct
2,new_learn,10,708,B,5.114639581351103,32.61263598160642,0.2557319790675551,0.5122780880700643,B,1070,Correct
2,new_learn,10,709,A,39.18830311595437,4.353974422457874,1.9594151557977184,0.06839207029755759,A,1173,Correct
2,new_learn,10,710,B,21.265351608800746,42.645362032282314,1.0632675804400373,0.669871780351476,B,887,Correct
2,new_learn,10,711,D,68.3567031634933,53.75990442871986,3.4178351581746647,0.8444586040547784,C,395,Incorrect
2,new_learn,10,712,D,72.86098481375329,43.00593312396865,3.643049240687665,0.6755356178151694,D,968,Correct
2,new_learn,10,713,D,51.63392093818088,45.214977486231284,2.581696046909044,0.7102352055148605,B,3542,Incorrect
2,new_learn,10,714,D,85.67267401574979,64.90515366837963,4.283633700787489,1.0195277697234904,D,740,Correct
2,new_learn,10,715,B,32.32576514255382,68.5334550050673,1.616288257127691,1.0765209938452303,C,1078,Incorrect
2,new_learn,10,716,A,45.134663037325495,14.504117041609119,2.2567331518662748,0.22783013772362865,A,1260,Correct
2,new_learn,10,717,A,67.29544990714035,42.32810839564053,3.3647724953570175,0.6648883718804837,D,2151,Incorrect
2,new_learn,10,718,B,39.534270355538304,38.68145577320941,1.976713517776915,0.6076068864363658,C,1023,Incorrect
2,new_learn,10,719,C,32.4336048254152,59.0421104603226,1.6216802412707603,0.9274313023729328,C,1901,Correct
2,new_learn,10,720,D,68.69216206533287,47.25956284501896,3.434608103266643,0.7423514772288835,D,750,Correct
2,new_learn,10,721,B,34.70060813610954,72.09620631475732,1.735030406805477,1.1324845605506784,B,1987,Correct
2,new_learn,10,722,A,73.02459252933535,37.80593864072523,3.651229626466767,0.5938542954788444,C,2542,Incorrect
2,new_learn,10,723,B,20.51738459303308,75.57687582650942,1.025869229651654,1.1871587893891502,B,804,Correct
2,new_learn,10,724,A,47.53926133467703,15.621620492330011,2.3769630667338517,0.24538384087935863,A,1847,Correct
2,new_learn,10,725,B,49.87864489200125,47.65139684189368,2.4939322446000625,0.7485063912589253,D,1302,Incorrect
2,new_learn,10,726,C,73.63088846844985,66.08204432543695,3.6815444234224923,1.0380143249349392,D,810,Incorrect
2,new_learn,10,727,B,47.952686708695516,43.289726401189654,2.397634335434776,0.6799934321894476,D,1191,Incorrect
2,new_learn,10,728,B,27.948759096637776,32.07162043085245,1.3974379548318887,0.5037798356714318,C,2606,Incorrect
2,new_learn,10,729,C,57.84290405322153,89.30606785166646,2.892145202661077,1.4028164334189346,D,1670,Incorrect
2,new_learn,10,730,A,33.50245550225394,9.730569913439577,1.675122775112697,0.15284743477651822,A,1157,Correct
2,new_learn,10,731,C,56.75003701648138,92.90635875708332,2.837501850824069,1.4593696707151538,C,4811,Correct
2,new_learn,10,732,D,84.84242275850679,47.85067063706132,4.24212113792534,0.7516365767136834,C,1741,Incorrect
2,new_learn,10,733,C,54.22082417134688,74.03159546862324,2.7110412085673437,1.162885582288791,C,3166,Correct
2,new_learn,10,734,D,90.06606775457756,68.98978634773329,4.503303387728878,1.0836890298138415,D,1071,Correct
2,new_learn,10,735,C,45.26841761519725,53.17457298025863,2.2634208807598624,0.8352642391627743,A,1598,Incorrect
2,new_learn,10,736,D,94.9189407518497,35.43588801230139,4.745947037592486,0.5566256272643832,A,1363,Incorrect
2,new_learn,10,737,C,52.21127523430355,78.36557958121615,2.6105637617151776,1.2309636455332746,D,1605,Incorrect
2,new_learn,10,738,C,63.01140959827816,79.69552166030809,3.1505704799139083,1.2518543268601507,B,904,Incorrect
2,new_learn,10,739,A,73.34712802954544,30.670631830866583,3.667356401477272,0.4817731582040387,A,1139,Correct
2,new_learn,10,740,B,33.3067702511338,37.114838231515655,1.66533851255669,0.5829985156365158,A,919,Incorrect
2,new_learn,10,741,C,36.66013042330775,83.3952740970977,1.8330065211653874,1.3099699022377465,D,1422,Incorrect
2,new_learn,10,742,C,37.00885718122005,88.9290051531917,1.8504428590610025,1.3968935464015795,C,733,Correct
2,new_learn,10,743,D,81.53215426955211,57.403295931187586,4.076607713477605,0.9016888639462989,D,3600,Correct
2,new_learn,10,744,C,56.04476831833527,88.09182858708218,2.8022384159167637,1.3837432076523433,C,2195,Correct
2,new_learn,10,745,C,71.67398420686906,83.08198301959888,3.5836992103434535,1.3050487375002189,C,1863,Correct
2,new_learn,10,746,B,10.762980765869504,66.12884829115421,0.5381490382934752,1.0387495199092203,B,805,Correct
2,new_learn,10,747,D,83.68027884794235,47.61726770343327,4.184013942397118,0.7479702920056224,D,4286,Correct
2,new_learn,10,748,A,51.64051513743622,37.72666670025092,2.582025756871811,0.5926090947496948,D,1365,Incorrect
2,new_learn,10,749,C,67.84291895724466,77.9296666959706,3.392145947862233,1.224116341943812,C,2219,Correct
2,new_learn,10,750,A,35.59595312938591,9.218114071820894,1.7797976564692957,0.14479779723992608,A,816,Correct
2,new_learn,10,751,A,34.30881387840296,3.873585879340556,1.7154406939201479,0.06084614470792725,A,1053,Correct
2,new_learn,10,752,A,52.36436193657158,-0.7855481711741881,2.6182180968285786,-0.012339361818008631,A,2645,Correct
2,new_learn,10,753,C,61.22620974604375,52.538667831440165,3.0613104873021877,0.8252754644432341,D,4605,Incorrect
2,new_learn,10,754,D,87.99690506231867,51.44917384925379,4.3998452531159336,0.8081617329903991,D,957,Correct
2,new_learn,10,755,D,61.54369114426791,45.256380902780585,3.0771845572133953,0.7108855688611845,D,2033,Correct
2,new_learn,10,756,D,85.61875974055285,62.074013110303724,4.2809379870276425,0.9750563178308334,D,1332,Correct
2,new_learn,10,757,C,46.43345138445732,87.08235096562547,2.321672569222866,1.3678863702546848,C,1239,Correct
2,new_learn,10,758,B,26.03911561293378,33.00269447084109,1.301955780646689,0.5184051124913144,A,2203,Incorrect
2,new_learn,10,759,D,73.71761087378204,24.113343433418482,3.6858805436891022,0.37877151291957595,B,1727,Incorrect
2,new_learn,10,760,B,11.553666618243351,34.092410838302726,0.5776833309121676,0.5355223371638844,B,723,Correct
2,new_learn,10,761,A,27.11041459358137,31.846784241615374,1.3555207296790686,0.5002481170695903,B,3423,Incorrect
2,new_learn,10,762,A,48.106099041319546,14.734943067138103,2.4053049520659773,0.2314559444539246,A,1893,Correct
2,new_learn,10,763,A,44.54357000065164,47.887111991979566,2.227178500032582,0.7522089961781734,C,570,Incorrect
2,new_learn,10,764,D,93.52312765080342,55.973350354247685,4.676156382540171,0.879227331348561,D,925,Correct
2,new_learn,10,765,C,47.95279060930791,90.77012806859405,2.3976395304653955,1.4258138375284988,C,1768,Correct
2,new_learn,10,766,A,46.17813889025122,25.146460473614304,2.308906944512561,0.394999677438464,D,2003,Incorrect
2,new_learn,10,767,A,33.77814295350918,42.89241012162557,1.6889071476754591,0.6737524026642969,D,2822,Incorrect
2,new_learn,10,768,B,47.431098276989665,41.01815757614852,2.3715549138494834,0.6443117125250835,D,1661,Incorrect
2,new_learn,10,769,B,25.974041460108445,36.33366749070722,1.2987020730054224,0.5707279143339005,B,3060,Correct
2,new_learn,10,770,A,34.45426722197524,5.324149430005132,1.7227133610987622,0.08363154367959204,A,1286,Correct
2,new_learn,10,771,A,60.77398424067827,36.66306587291905,3.0386992120339134,0.5759020920222057,D,1489,Incorrect
2,new_learn,10,772,D,77.35559313873318,36.57106065219438,3.8677796569366594,0.5744568773946032,D,2781,Correct
2,new_learn,10,773,C,42.4069145301191,97.08641976717631,2.1203457265059553,1.52502991551948,C,1070,Correct
2,new_learn,10,774,D,62.85804023817101,73.44044837059194,3.1429020119085505,1.1535998653869608,B,1788,Incorrect
2,new_learn,10,775,C,31.90219930726224,72.86583326124011,1.595109965363112,1.144573832356054,B,983,Incorrect
2,new_learn,10,776,B,7.230229970654513,62.499245444339905,0.36151149853272563,0.9817358517142181,A,612,Incorrect
2,new_learn,10,777,A,76.25219315190658,27.22146434919181,3.812609657595329,0.4275937620968872,C,3335,Incorrect
2,new_learn,10,778,C,29.623013361579936,58.51225702731553,1.4811506680789968,0.919108384109861,B,2887,Incorrect
2,new_learn,10,779,C,42.19148685186956,59.25893082655928,2.1095743425934783,0.9308371087215218,D,2309,Incorrect
2,new_learn,10,780,B,16.962859797345843,28.925404314239657,0.8481429898672921,0.454359188478649,B,734,Correct
2,new_learn,10,781,C,54.42512224993944,69.78603576784965,2.721256112496972,1.0961964864571552,C,2634,Correct
2,new_learn,10,782,B,9.592948451142833,43.247119435769456,0.47964742255714166,0.6793241635416685,B,825,Correct
2,new_learn,10,783,D,60.64632103776788,54.23529461816266,3.0323160518883943,0.8519260156884892,D,5519,Correct
2,new_learn,10,784,C,51.34012328579891,63.24296249080268,2.5670061642899453,0.9934181317618027,D,835,Incorrect
2,new_learn,10,785,B,24.846626766662794,33.44658074726388,1.2423313383331398,0.5253776618165101,A,1741,Incorrect
2,new_learn,10,786,C,33.53524692132923,93.55006676067845,1.6767623460664618,1.4694810123909103,C,1245,Correct
2,new_learn,10,787,B,47.26337800606531,48.570779928092165,2.363168900303265,0.7629480270061048,D,5460,Incorrect
2,new_learn,10,788,A,69.77663236805441,31.57707586514223,3.48883161840272,0.496011547798892,A,1461,Correct
2,new_learn,10,789,C,57.19221917994646,57.62756283154057,2.859610958997323,0.9052116401792603,A,2048,Incorrect
2,new_learn,10,790,D,80.78795553359404,61.4280029386547,4.039397776679703,0.9649088137838492,D,1802,Correct
2,new_learn,10,791,B,3.896061823304457,49.44759545674913,0.19480309116522285,0.7767210131230154,B,920,Correct
2,new_learn,10,792,A,50.83330560684792,30.889172258907152,2.541665280342396,0.4852059832202617,A,1434,Correct
2,new_learn,10,793,D,78.27104669897773,76.29732521310088,3.9135523349488865,1.1984755818901451,C,1143,Incorrect
2,new_learn,10,794,A,40.6289088753976,49.89620136475716,2.03144544376988,0.7837676982477905,C,3935,Incorrect
2,new_learn,10,795,B,14.622724152239151,28.97288091405458,0.7311362076119576,0.45510494916462907,B,1261,Correct
2,new_learn,10,796,B,7.963646148917054,62.04909478840636,0.39818230744585265,0.9746649017457705,B,757,Correct
2,new_learn,10,797,A,27.96573146371655,32.65253115679448,1.3982865731858276,0.5129047600164869,A,901,Correct
2,new_learn,10,798,C,45.32973607562133,63.30730471994042,2.266486803781066,0.9944288171336763,D,1615,Incorrect
2,new_learn,10,799,A,38.334862481872335,48.30327981236918,1.9167431240936168,0.758746145014156,C,708,Incorrect
2,new_learn,10,800,A,61.67795601047939,9.101790631147667,3.0838978005239697,0.14297059290662958,D,925,Incorrect
2,new_learn,10,801,D,94.33650934745127,59.707591178436466,4.716825467372564,0.9378846490485938,D,1310,Correct
2,new_learn,10,802,A,54.13110518891755,-0.5507284521882596,2.7065552594458775,-0.00865082229758757,A,911,Correct
2,new_learn,10,803,D,93.54402468464463,50.05368835627649,4.677201234232231,0.7862414981257559,D,972,Correct
2,new_learn,10,804,B,12.493267779207763,30.311426088318107,0.6246633889603881,0.4761307675944509,B,755,Correct
2,new_learn,10,805,B,4.693560498041396,49.08854896925175,0.23467802490206982,0.7710811240859206,B,767,Correct
2,new_learn,10,806,B,16.74370364740234,73.60802462355477,0.8371851823701171,1.1562321470130814,B,822,Correct
2,new_learn,10,807,B,14.760733746550432,31.123567055801136,0.7380366873275216,0.48888784808007074,B,1054,Correct
2,new_learn,10,808,B,6.438313218801838,66.3906348649382,0.3219156609400919,1.0428616537942614,B,660,Correct
2,new_learn,10,809,A,49.675393563501615,27.77335302657818,2.4837696781750807,0.4362628091692693,A,1462,Correct
2,new_learn,10,810,D,88.0193704567144,58.609015933670115,4.40096852283572,0.9206282694567258,C,1509,Incorrect
2,new_learn,10,811,B,17.851705447290946,28.042280591844566,0.8925852723645474,0.4404871134862126,B,1350,Correct
2,new_learn,10,812,B,45.520441967261334,47.494476617663885,2.2760220983630663,0.7460414941407253,D,3101,Incorrect
2,new_learn,10,813,C,43.10190135740589,51.001067620459665,2.1550950678702945,0.8011228968083617,C,1448,Correct
2,new_learn,10,814,C,57.79082481039806,65.42336504455187,2.8895412405199026,1.0276678149854372,C,1099,Correct
2,new_learn,10,815,A,48.50712928305328,6.429790508684352,2.425356464152664,0.10099891313102069,A,1117,Correct
2,new_learn,10,816,A,38.0877231548846,24.975793368644535,1.90438615774423,0.3923188448225517,A,1629,Correct
2,new_learn,10,817,C,45.40747247666578,72.17599785392477,2.2703736238332892,1.1337379231170135,C,1600,Correct
2,new_learn,10,818,A,46.29717486867645,10.717782242356492,2.3148587434338226,0.16835452977681148,A,1234,Correct
2,new_learn,10,819,A,30.41004438827581,41.66642364850599,1.5205022194137905,0.6544946521775323,A,7510,Correct
2,new_learn,10,820,A,46.72803955923225,48.89829073693522,2.3364019779616125,0.7680925547612677,C,2085,Incorrect
2,new_learn,10,821,C,59.92585707472278,64.41205463529137,2.9962928537361386,1.0117821882242788,D,944,Incorrect
2,new_learn,10,822,B,30.803121298030362,24.617501388083078,1.540156064901518,0.38669080755269164,A,3213,Incorrect
2,new_learn,10,823,C,58.43954427706505,83.8575830746301,2.921977213853253,1.3172318346752685,C,1339,Correct
2,new_learn,10,824,D,84.3752120179584,61.402207526522346,4.21876060089792,0.9645036203975926,D,1927,Correct
2,new_learn,10,825,C,67.85882764511119,70.2029055947151,3.3929413822555596,1.1027446623850738,D,1007,Incorrect
2,new_learn,10,826,D,59.37932389021074,60.93040382955013,2.968966194510537,0.9570925452558705,C,1093,Incorrect
2,new_learn,10,827,A,45.938857811478236,-1.080123981859792,2.296942890573912,-0.01696654783188439,A,675,Correct
2,new_learn,10,828,D,55.808428921315326,35.16316296074225,2.7904214460657664,0.5523416721722428,C,3311,Incorrect
2,new_learn,10,829,A,27.00574081473071,26.409201357962445,1.3502870407365355,0.41483476486674203,A,948,Correct
2,new_learn,10,830,A,69.71273195625619,38.2522654022282,3.48563659781281,0.6008651798540356,A,1774,Correct
2,new_learn,10,831,D,65.99463041152597,75.08687540349746,3.299731520576299,1.1794618807431987,C,1175,Incorrect
2,new_learn,10,832,A,67.02866360427875,30.259067605504438,3.351433180213937,0.4753083224696482,A,1069,Correct
2,new_learn,10,833,A,46.14321367866495,8.470880003041923,2.3071606839332475,0.13306027193498593,A,797,Correct
2,new_learn,10,834,B,25.179611562955916,24.445379247429525,1.2589805781477958,0.38398711928970497,A,887,Incorrect
2,new_learn,10,835,A,69.99533252055838,28.541185292377456,3.4997666260279185,0.44832389019639035,D,804,Incorrect
2,new_learn,10,836,A,41.582996887071324,25.472691062611116,2.0791498443535663,0.4001240955473074,A,2975,Correct
2,new_learn,10,837,C,28.66877352010165,58.88864141551922,1.4334386760050826,0.9250206162543939,B,1015,Incorrect
2,new_learn,10,838,C,38.06156504961304,75.82197231727693,1.9030782524806518,1.1910087560632294,C,2029,Correct
2,new_learn,10,839,A,51.942663996993595,17.788706625800916,2.59713319984968,0.2794243502624012,A,1132,Correct
2,new_learn,10,840,B,13.683173402257445,30.980824814664235,0.6841586701128722,0.4866456581995076,B,871,Correct
2,new_learn,10,841,A,61.66663199182226,44.52455616375051,3.083331599591113,0.6993900927419237,D,3884,Incorrect
2,new_learn,10,842,A,72.94096051813503,35.39111307688053,3.6470480259067517,0.5559223042234677,A,1311,Correct
2,new_learn,10,843,B,26.21291371190554,58.6548993136674,1.3106456855952768,0.9213490039043325,B,1612,Correct
2,new_learn,10,844,D,53.26639306794194,54.3204750778203,2.6633196533970973,0.8532640272199384,A,1615,Incorrect
2,new_learn,10,845,B,12.857038030962888,68.4458999325557,0.6428519015481444,1.0751456819822955,B,733,Correct
2,new_learn,10,846,B,42.48255240216004,32.946205362354114,2.124127620108002,0.5175177836501617,A,1269,Incorrect
2,new_learn,10,847,C,23.915121889877668,76.94871918030721,1.1957560944938834,1.2087076543999855,B,1245,Incorrect
2,new_learn,10,848,D,71.28265443102723,49.17841151235785,3.5641327215513616,0.7724926816121956,D,5244,Correct
2,new_learn,10,849,D,72.8052641049374,41.67634395959925,3.6402632052468697,0.6546504800597918,D,853,Correct
2,new_learn,10,850,D,90.44315354294149,33.9329140651125,4.522157677147074,0.5330169677092559,D,861,Correct
2,new_learn,10,851,D,71.49879759354447,28.235610378343367,3.574939879677223,0.4435239306711362,D,566,Correct
2,new_learn,10,852,B,35.73123909420802,72.8251421274817,1.7865619547104012,1.1439346575216454,B,1220,Correct
2,new_learn,10,853,C,42.177314217706304,87.15702899881344,2.1088657108853153,1.3690594100569247,B,1549,Incorrect
2,new_learn,10,854,A,70.07955478513955,12.467615763238,3.5039777392569773,0.195840850447844,A,3208,Correct
2,new_learn,10,855,C,68.65188611427142,74.57179263283135,3.432594305713571,1.171370979501622,D,4114,Incorrect
2,new_learn,10,856,D,63.498912767108436,67.14146612509188,3.174945638355422,1.054655683649183,C,598,Incorrect
2,new_learn,10,857,C,71.24067309595203,85.45094373473967,3.562033654797602,1.3422602853968644,B,1293,Incorrect
2,new_learn,10,858,B,9.573251692311086,30.239736047249647,0.47866258461555433,0.4750046630626697,B,807,Correct
2,new_learn,10,859,C,60.70206470847873,59.820364388989006,3.0351032354239362,0.9396560864975617,C,1182,Correct
2,new_learn,10,860,B,39.119790405366885,28.131601724526508,1.9559895202683442,0.44189016655743224,A,3061,Incorrect
2,new_learn,10,861,B,11.956174768536298,72.41810877044125,0.5978087384268149,1.1375409925004238,B,749,Correct
2,new_learn,10,862,D,60.11743333544818,41.87197327389359,3.0058716667724092,0.6577234181428614,D,1982,Correct
2,new_learn,10,863,B,21.9734385585111,29.801446247182046,1.098671927925555,0.4681200229824911,D,1451,Incorrect
2,new_learn,10,864,A,57.049582699942675,10.99756594935666,2.8524791349971337,0.1727493619693407,A,1541,Correct
2,new_learn,10,865,D,69.49541957651266,67.23642052999932,3.474770978825633,1.0561472239535992,C,1135,Incorrect
2,new_learn,10,866,B,33.31510294254735,39.60305606902051,1.6657551471273675,0.6220833500306976,D,3875,Incorrect
2,new_learn,10,867,A,70.19786050058377,13.18415724113883,3.5098930250291884,0.2070962576626721,A,1381,Correct
2,new_learn,10,868,D,62.540940653711374,50.87648025474506,3.1270470326855686,0.7991658830440662,C,6191,Incorrect
2,new_learn,10,869,D,75.71498758811533,59.35605335232262,3.7857493794057664,0.9323627057887028,B,2558,Incorrect
2,new_learn,10,870,B,9.786216949645995,46.45540087035525,0.4893108474822998,0.7297197304693847,B,693,Correct
2,new_learn,10,871,C,56.922964425600156,51.54299888906267,2.846148221280008,0.8096355332693307,C,5573,Correct
2,new_learn,10,872,C,71.29012310996974,87.4075833763662,3.5645061554984867,1.372995109016147,C,2278,Correct
2,new_learn,10,873,D,60.857921123520235,39.113596681040484,3.0428960561760117,0.6143949399431545,C,4893,Incorrect
2,new_learn,10,874,A,27.825461933502414,38.910892323182175,1.3912730966751206,0.611210867335663,A,1596,Correct
2,new_learn,10,875,B,14.759992557559224,40.433633781270686,0.7379996278779611,0.6351300342259004,B,1128,Correct
2,new_learn,10,876,D,55.004884903482605,67.49264913371005,2.7502442451741302,1.060172053448885,C,4379,Incorrect
2,new_learn,10,877,A,63.74239960435253,9.513946696575658,3.187119980217626,0.14944472524303484,A,1791,Correct
2,new_learn,10,878,A,59.34123793501275,11.613375886295321,2.9670618967506375,0.18242248183881113,A,934,Correct
2,new_learn,10,879,A,69.61356509034972,34.90508922109117,3.480678254517486,0.5482878593493814,A,1382,Correct
2,new_learn,10,880,B,20.74346967243177,65.70816840791542,1.0371734836215887,1.03214149575574,B,1558,Correct
2,new_learn,10,881,C,31.931714167390293,82.24258029324496,1.5965857083695147,1.2918634303076353,B,2243,Incorrect
2,new_learn,10,882,D,74.04813019539839,31.282501526983214,3.702406509769919,0.4913843849154098,A,1357,Incorrect
2,new_learn,10,883,C,35.55358882222933,90.62550313125595,1.7776794411114665,1.4235420743251626,C,2303,Correct
2,new_learn,10,884,B,3.588568937197813,59.48005070152081,0.17942844685989065,0.934310451595231,A,998,Incorrect
2,new_learn,10,885,B,22.761844505258786,72.64748079975452,1.1380922252629393,1.1411439599115718,B,3205,Correct
2,new_learn,10,886,B,22.19189919961373,33.34787093504315,1.1095949599806865,0.5238271317119607,B,1871,Correct
2,new_learn,10,887,C,45.21487369104504,81.3481985769999,2.2607436845522524,1.2778145151613327,C,3019,Correct
2,new_learn,10,888,C,45.77361041268704,57.38739699725009,2.2886805206343523,0.9014391240760093,C,2601,Correct
2,new_learn,10,889,D,59.44141780089207,30.185404796624564,2.9720708900446033,0.4741512297735491,C,1418,Incorrect
2,new_learn,10,890,A,44.78759581409522,19.55987083858018,2.2393797907047612,0.3072457326582436,A,5710,Correct
2,new_learn,10,891,B,22.84188978656948,71.43573679519962,1.1420944893284741,1.1221099295978658,B,951,Correct
2,new_learn,10,892,C,50.00147847433685,49.254445843602454,2.5000739237168426,0.7736870260944889,C,2485,Correct
2,new_learn,10,893,A,51.93254369581114,20.66542033839376,2.596627184790557,0.3246116635922146,D,935,Incorrect
