experiment,condition,subject,trial,cat,x,y,xt,yt,resp,rt,fb
2,new_learn,2,0,C,68.18108992233154,52.79653885032197,3.4090544961165765,0.829326092935698,A,727,Incorrect
2,new_learn,2,1,C,62.2636262373179,57.9980669899922,3.113181311865895,0.9110315058908409,B,572,Incorrect
2,new_learn,2,2,D,61.18084084822943,34.329220133552305,3.0590420424114715,0.5392421288751736,C,268,Incorrect
2,new_learn,2,3,D,42.611914348800745,43.36432847453287,2.130595717440037,0.6811652788172357,D,312,Correct
2,new_learn,2,4,D,70.44520018938793,27.08625344990708,3.522260009469397,0.4254698742574964,B,1388,Incorrect
2,new_learn,2,5,C,92.31412697953817,42.34181454570382,4.615706348976909,0.6651036675822227,D,798,Incorrect
2,new_learn,2,6,D,27.74883062444497,26.922419731381503,1.3874415312222483,0.4228963802248451,A,1856,Incorrect
2,new_learn,2,7,C,89.24894377675763,62.59252237013426,4.462447188837881,0.9832010422383429,D,685,Incorrect
2,new_learn,2,8,A,16.59614189105713,38.01918813676279,0.8298070945528565,0.597204010729511,A,2180,Correct
2,new_learn,2,9,A,27.254570950589784,56.983298724929725,1.3627285475294892,0.8950915632577592,D,1318,Incorrect
2,new_learn,2,10,C,72.44047054020935,65.9551550601398,3.6220235270104673,1.0360211530165544,B,2764,Incorrect
2,new_learn,2,11,C,57.21142915961097,31.069874376465368,2.860571457980549,0.4880444454453068,B,1759,Incorrect
2,new_learn,2,12,C,71.52614147265943,39.16684032746013,3.5763070736329716,0.615231289185366,C,1125,Correct
2,new_learn,2,13,B,60.238874790895984,96.73902143740244,3.011943739544799,1.5195729953160448,C,1974,Incorrect
2,new_learn,2,14,C,98.30423999615516,41.292490574073796,4.915211999807758,0.6486209251796801,B,3219,Incorrect
2,new_learn,2,15,B,52.80566846529176,82.95474227855749,2.640283423264588,1.303050044613754,D,887,Incorrect
2,new_learn,2,16,D,31.622897675684804,31.27214473629315,1.5811448837842403,0.4912217008276764,A,734,Incorrect
2,new_learn,2,17,A,46.22589388005565,58.187690703014226,2.3112946940027825,0.9140101082097228,A,1053,Correct
2,new_learn,2,18,D,43.225432383977214,13.411520465471705,2.161271619198861,0.21066767083897536,C,1907,Incorrect
2,new_learn,2,19,B,50.29255027589809,59.16890531672803,2.5146275137949043,0.9294229913199141,D,2220,Incorrect
2,new_learn,2,20,C,67.11185929707041,53.260019941512624,3.3555929648535203,0.8366064368915096,D,1998,Incorrect
2,new_learn,2,21,A,8.50505635033679,41.92255189523115,0.42525281751683947,0.6585179052689752,C,3493,Incorrect
2,new_learn,2,22,A,46.96610493779643,65.35717937285212,2.348305246889822,1.026628172885513,B,814,Incorrect
2,new_learn,2,23,B,50.45007683532947,90.61551896773314,2.5225038417664734,1.423385243451285,B,1308,Correct
2,new_learn,2,24,D,45.093625533783516,38.953083453661634,2.2546812766891757,0.6118736040634677,A,1439,Incorrect
2,new_learn,2,25,B,39.29462913185691,87.01151477776148,1.9647314565928453,1.3667736780176758,C,975,Incorrect
2,new_learn,2,26,C,88.57249544327536,29.244493588874217,4.428624772163768,0.45937143108380524,D,981,Incorrect
2,new_learn,2,27,A,32.936795406747265,61.44963525234,1.6468397703373632,0.9652486133726187,B,2227,Incorrect
2,new_learn,2,28,C,72.10403780830289,65.47712568444415,3.605201890415145,1.0285122851421264,C,1165,Correct
2,new_learn,2,29,B,49.25164616837332,65.55309225079723,2.462582308418666,1.0297055651759928,A,1422,Incorrect
2,new_learn,2,30,D,38.6660170017455,1.5598340450774835,1.933300850087275,0.02450181588417336,D,1088,Correct
2,new_learn,2,31,B,34.88805595245957,60.71983462391866,1.7444027976229786,0.95378493190845,D,846,Incorrect
2,new_learn,2,32,B,64.02725364564105,79.7652011647107,3.2013626822820527,1.2529488499558359,C,1059,Incorrect
2,new_learn,2,33,A,34.50092150375995,68.54757816597629,1.7250460751879972,1.0767428399380161,B,816,Incorrect
2,new_learn,2,34,D,36.490473373022205,4.823204746362219,1.8245236686511104,0.07576272298965483,A,1509,Incorrect
2,new_learn,2,35,D,50.83840856151932,23.80459490906082,2.541920428075966,0.3739217024399323,C,1077,Incorrect
2,new_learn,2,36,C,68.4279496745416,46.7710885508143,3.4213974837270795,0.7346785409581794,C,852,Correct
2,new_learn,2,37,C,62.32266041193511,40.3368671335882,3.1161330205967555,0.6336100272785413,A,485,Incorrect
2,new_learn,2,38,D,66.0298704752243,13.367106905129116,3.301493523761215,0.20997002426451516,C,701,Incorrect
2,new_learn,2,39,D,54.289284889604104,3.3833212233106984,2.7144642444802054,0.05314508549943661,A,1598,Incorrect
2,new_learn,2,40,C,72.95271943286573,75.36133866223005,3.6476359716432865,1.183773139529772,C,1309,Correct
2,new_learn,2,41,D,29.223363536871037,25.7279901498948,1.461168176843552,0.4041343242327004,A,1846,Incorrect
2,new_learn,2,42,D,61.53464528754563,39.282821417704575,3.0767322643772816,0.6170531158907023,B,878,Incorrect
2,new_learn,2,43,C,98.95803262993817,51.68575580630726,4.947901631496909,0.8118779536816545,C,608,Correct
2,new_learn,2,44,B,34.58766745068127,63.00268203783957,1.7293833725340635,0.989643815232652,D,2413,Incorrect
2,new_learn,2,45,D,72.07131360626266,11.538840668764411,3.603565680313133,0.18125168537966704,C,829,Incorrect
2,new_learn,2,46,A,30.186948421399,56.18259418569455,1.50934742106995,0.8825141257669731,B,1046,Incorrect
2,new_learn,2,47,A,42.88113331462274,42.71873987484908,2.144056665731137,0.671024396807196,A,1064,Correct
2,new_learn,2,48,B,46.01391711140256,88.44792446118049,2.3006958555701282,1.389336748562548,A,755,Incorrect
2,new_learn,2,49,B,45.93962749089532,99.56641907629256,2.2969813745447656,1.5639856535716168,D,1053,Incorrect
2,new_learn,2,50,C,70.65515576095724,67.34211934387766,3.5327577880478622,1.0578075370394657,C,2196,Correct
2,new_learn,2,51,C,84.67330786515521,33.37583798592933,4.233665393257761,0.5242664371199937,B,985,Incorrect
2,new_learn,2,52,A,9.49102961943146,33.95911678567525,0.47455148097157296,0.533428559081376,A,785,Correct
2,new_learn,2,53,A,36.80428996449777,33.115657953642604,1.8402144982248885,0.5201795387297801,D,814,Incorrect
2,new_learn,2,54,D,65.40311145373703,39.59300904905396,3.2701555726868516,0.6219255318101106,C,1000,Incorrect
2,new_learn,2,55,B,39.30298943696855,58.08458974599273,1.9651494718484275,0.9123906021639389,B,3020,Correct
2,new_learn,2,56,D,32.46107322666118,38.372592347512345,1.6230536613330588,0.6027552710907034,D,2540,Correct
2,new_learn,2,57,C,80.06005753938175,36.29768211454754,4.003002876969088,0.570162657367001,C,928,Correct
2,new_learn,2,58,D,35.4477583651186,21.399914328318037,1.7723879182559301,0.3361490682064745,A,1075,Incorrect
2,new_learn,2,59,D,65.92629506351642,26.482923812381248,3.296314753175821,0.4159927944727757,C,1022,Incorrect
2,new_learn,2,60,B,48.85682969837058,51.575591312738105,2.442841484918529,0.810147493863238,B,760,Correct
2,new_learn,2,61,D,54.41031925336051,0.5479243671698448,2.7205159626680255,0.008606775833118105,C,2893,Incorrect
2,new_learn,2,62,D,54.422047384909106,17.69416489053213,2.7211023692454552,0.2779392921575109,B,3253,Incorrect
2,new_learn,2,63,C,87.12193965438786,44.9303897630595,4.356096982719393,0.7057649120127688,D,613,Incorrect
2,new_learn,2,64,D,54.33027288801308,22.431404212260638,2.7165136444006537,0.3523516734147058,C,1851,Incorrect
2,new_learn,2,65,D,47.74192985760748,12.93614787842882,2.387096492880374,0.20320053570311586,B,1214,Incorrect
2,new_learn,2,66,D,66.86833897161893,7.593473918923557,3.343416948580946,0.11927800939457972,A,2494,Incorrect
2,new_learn,2,67,C,88.94470696187169,47.23719492403609,4.447235348093584,0.7420001227477041,D,662,Incorrect
2,new_learn,2,68,B,43.403114662778506,96.7431115910755,2.1701557331389254,1.5196372432997018,B,1238,Correct
2,new_learn,2,69,A,18.251185286209598,33.965414112313596,0.9125592643104798,0.5335274772568974,A,982,Correct
2,new_learn,2,70,A,32.204381563618554,39.426837373631784,1.6102190781809276,0.6193153132364055,B,1070,Incorrect
2,new_learn,2,71,A,35.6198841895487,32.093823280370145,1.7809942094774351,0.5041285972160996,D,1063,Incorrect
2,new_learn,2,72,C,83.5307535605341,46.028951775380996,4.176537678026705,0.7230210837498792,C,1525,Correct
2,new_learn,2,73,A,38.765562230086914,54.62204815164704,1.9382781115043457,0.8580011259862115,A,3524,Correct
2,new_learn,2,74,A,16.744667011563187,26.9389240832626,0.8372333505781594,0.42315562997795464,A,2420,Correct
2,new_learn,2,75,C,83.93437620659732,37.803967102677944,4.196718810329866,0.5938233266316162,C,3447,Correct
2,new_learn,2,76,D,27.283446915673363,19.32898594919943,1.364172345783668,0.3036190012967263,A,2255,Incorrect
2,new_learn,2,77,D,35.87702463302076,38.008217906818636,1.793851231651038,0.5970316907605073,B,901,Incorrect
2,new_learn,2,78,A,4.818626705537046,64.3424794812931,0.2409313352768523,1.010689304260912,A,1082,Correct
2,new_learn,2,79,C,57.36489237307852,57.808091548883425,2.868244618653926,0.9080473786400919,D,2086,Incorrect
2,new_learn,2,80,C,63.07623854837098,43.772535883307484,3.1538119274185488,0.6875773857999721,B,976,Incorrect
2,new_learn,2,81,C,58.494724008432065,43.494982158908925,2.9247362004216035,0.683217582092237,A,558,Incorrect
2,new_learn,2,82,B,51.043433852539216,101.49217878850291,2.5521716926269606,1.594235416393913,C,915,Incorrect
2,new_learn,2,83,D,46.088812366796745,38.237782341590915,2.304440618339837,0.6006376804695377,A,511,Incorrect
2,new_learn,2,84,C,59.64401759647887,47.932764672845934,2.982200879823943,0.7529261068123057,B,404,Incorrect
2,new_learn,2,85,B,64.64658530016793,71.73467215243899,3.2323292650083966,1.1268055952088731,A,568,Incorrect
2,new_learn,2,86,B,40.739954139392495,73.92126304073648,2.0369977069696246,1.161152484564282,C,795,Incorrect
2,new_learn,2,87,A,8.82726070733045,42.903411910717004,0.4413630353665225,0.6739252183632268,A,3165,Correct
2,new_learn,2,88,B,30.99076628034405,68.60726465879887,1.5495383140172025,1.0776803931748657,B,1070,Correct
2,new_learn,2,89,C,80.85621362298512,42.136506447432225,4.042810681149256,0.6618786955159601,C,1294,Correct
2,new_learn,2,90,A,34.29475576999677,44.40156868566813,1.7147377884998383,0.6974582099537879,A,1704,Correct
2,new_learn,2,91,A,48.7955768557176,39.88254813862246,2.4397788427858798,0.626473601193688,A,941,Correct
2,new_learn,2,92,D,45.904406664709946,17.27957346685377,2.295220333235497,0.27142690530316455,B,1078,Incorrect
2,new_learn,2,93,C,91.65063194944216,46.04275675569142,4.582531597472109,0.7232379318735098,B,923,Incorrect
2,new_learn,2,94,D,47.31639131839803,34.93361835949699,2.3658195659199013,0.5487359940075263,A,1085,Incorrect
2,new_learn,2,95,C,78.80646092906497,29.435774433381713,3.9403230464532486,0.4623760635631911,C,1048,Correct
2,new_learn,2,96,C,82.85404685807045,63.58949968922356,4.142702342903522,0.9988615253455759,C,525,Correct
2,new_learn,2,97,A,29.470537028361445,66.37359127599589,1.4735268514180724,1.0425939337252015,D,879,Incorrect
2,new_learn,2,98,B,54.42102775713503,76.55715102041297,2.7210513878567513,1.2025569161274687,A,326,Incorrect
2,new_learn,2,99,A,3.435600860049142,34.9760983453671,0.1717800430024571,0.549403268065197,A,843,Correct
2,new_learn,2,100,D,71.48956380422175,14.562815312578826,3.5744781902110874,0.22875216800791293,C,1838,Incorrect
2,new_learn,2,101,B,37.40669416690614,68.62138487111298,1.870334708345307,1.0779021929512314,A,1845,Incorrect
2,new_learn,2,102,D,37.66498444609986,47.88004632773426,1.8832492223049928,0.7520980089837445,B,350,Incorrect
2,new_learn,2,103,D,44.539924818859035,12.916671805548017,2.226996240942952,0.2028946062657003,B,1284,Incorrect
2,new_learn,2,104,B,31.148376427440468,62.700645265285075,1.5574188213720235,0.9848994327037962,A,854,Incorrect
2,new_learn,2,105,C,63.2036335256577,46.496954742749864,3.160181676282885,0.7303724571706004,C,1077,Correct
2,new_learn,2,106,C,53.98818857742815,46.87286870617085,2.6994094288714074,0.7362772998999263,C,576,Correct
2,new_learn,2,107,B,24.79319774586772,81.09275794192371,1.239659887293386,1.2738020630484144,A,5827,Incorrect
2,new_learn,2,108,A,36.36591679363342,45.746295474472305,1.8182958396816706,0.7185811289577511,A,1655,Correct
2,new_learn,2,109,D,67.6344476549541,9.039141415354939,3.381722382747705,0.14198650132619162,D,4598,Correct
2,new_learn,2,110,C,91.43233470682426,67.75195229241544,4.5716167353412125,1.0642451779410924,C,1531,Correct
2,new_learn,2,111,C,89.18421456687992,52.77308456121715,4.4592107283439955,0.8289576738239636,C,839,Correct
2,new_learn,2,112,D,43.86624929040064,48.64566076358457,2.193312464520032,0.7641242524194927,A,1837,Incorrect
2,new_learn,2,113,B,57.403806805036325,95.61906819722424,2.870190340251816,1.5019808109575055,A,3695,Incorrect
2,new_learn,2,114,C,67.39972113795801,41.15991166785965,3.3699860568979005,0.6465383805907636,C,2029,Correct
2,new_learn,2,115,D,48.70781133650833,47.532553805409854,2.4353905668254163,0.7466396092071858,B,2166,Incorrect
2,new_learn,2,116,C,53.23708798514676,37.661220450493914,2.6618543992573382,0.5915810674624868,B,1162,Incorrect
2,new_learn,2,117,A,20.895188114149306,40.13156587122408,1.0447594057074654,0.6303851625904622,A,832,Correct
2,new_learn,2,118,A,24.939371320035754,38.736160239854655,1.2469685660017875,0.608466182189022,A,876,Correct
2,new_learn,2,119,D,29.443494595638214,36.73916309765215,1.4721747297819108,0.5770974244331061,A,924,Incorrect
2,new_learn,2,120,B,61.88059623518483,69.15704352348594,3.0940298117592415,1.086316299386865,C,1004,Incorrect
2,new_learn,2,121,C,95.59657968947904,43.173716009542176,4.779828984473952,0.6781711452187487,C,1048,Correct
2,new_learn,2,122,D,57.01177246868721,-0.4704453548103942,2.8505886234343607,-0.007389738352938889,B,1517,Incorrect
2,new_learn,2,123,A,1.7690491542185285,40.278151702360155,0.08845245771092643,0.6326877274415493,A,965,Correct
2,new_learn,2,124,D,37.70766649407519,15.574044823072231,1.8853833247037597,0.24463652401420938,B,1412,Incorrect
2,new_learn,2,125,A,34.177738358833736,50.17440279090409,1.7088869179416866,0.7881376760307975,C,1174,Incorrect
2,new_learn,2,126,A,28.686178070222816,43.572953818672374,1.4343089035111407,0.6844423580597423,D,1503,Incorrect
2,new_learn,2,127,A,2.403085035579629,61.72504354747954,0.12015425177898145,0.969574716756359,A,719,Correct
2,new_learn,2,128,B,71.57467210232124,70.89087536010611,3.5787336051160623,1.1135512661892952,C,1476,Incorrect
2,new_learn,2,129,D,68.5053654600709,42.028217098909096,3.425268273003545,0.6601776904070487,D,1415,Correct
2,new_learn,2,130,A,50.75929665631985,53.71370727356776,2.5379648328159927,0.8437329408385655,D,780,Incorrect
2,new_learn,2,131,C,84.74540417791465,69.02670531423114,4.237270208895733,1.0842689515834805,C,958,Correct
2,new_learn,2,132,B,55.09970701241469,86.43439847828405,2.7549853506207347,1.3577083563841499,C,710,Incorrect
2,new_learn,2,133,B,47.35252629512505,67.07191007074026,2.3676263147562526,1.0535630997023644,D,956,Incorrect
2,new_learn,2,134,C,83.29708157936027,56.885300503029015,4.1648540789680135,0.8935522107878185,C,704,Correct
2,new_learn,2,135,B,50.80074604340666,91.18982648072311,2.540037302170333,1.4324064447698388,B,1851,Correct
2,new_learn,2,136,B,51.244065247088365,71.54982812648974,2.562203262354418,1.1239020720389628,B,895,Correct
2,new_learn,2,137,D,32.86104186937969,40.675907254633145,1.6430520934689843,0.6389356570462762,D,1870,Correct
2,new_learn,2,138,C,62.89222304623089,63.88751619208551,3.1446111523115445,1.003542757625774,C,1035,Correct
2,new_learn,2,139,A,31.93312357861214,46.17663001166626,1.596656178930607,0.7253408080609235,A,1638,Correct
2,new_learn,2,140,A,26.239115764644783,34.48160310735139,1.311955788232239,0.5416357550302705,A,2531,Correct
2,new_learn,2,141,C,51.72341489069889,45.763023093135665,2.586170744534945,0.7188438857772753,D,2133,Incorrect
2,new_learn,2,142,D,50.98252238982007,19.487911978972853,2.5491261194910035,0.3061154055347282,B,528,Incorrect
2,new_learn,2,143,D,63.547783490425275,24.55666755324485,3.177389174521264,0.3857352319096043,C,565,Incorrect
2,new_learn,2,144,D,69.63665398479745,24.874021465258643,3.4818326992398725,0.39072021550245684,B,71,Incorrect
2,new_learn,2,145,C,77.57937841804024,41.9243084046777,3.8789689209020115,0.6585454964548414,D,1212,Incorrect
2,new_learn,2,146,D,39.052421780804444,35.138674344219474,1.9526210890402222,0.5519570058834202,A,839,Incorrect
2,new_learn,2,147,B,51.759729731126484,58.7569517855123,2.587986486556324,0.9229520403834754,B,903,Correct
2,new_learn,2,148,D,74.0783552565093,14.913133063233502,3.703917762825465,0.2342549463673071,C,843,Incorrect
2,new_learn,2,149,A,41.91608781308106,63.29410344022931,2.095804390654053,0.9942214519168842,A,887,Correct
2,new_learn,2,150,D,35.04536273857157,43.129309980258085,1.7522681369285784,0.6774736169418788,A,1942,Incorrect
2,new_learn,2,151,C,72.00731767510754,44.039944565394165,3.600365883755377,0.6917778315557203,D,1847,Incorrect
2,new_learn,2,152,B,56.14112202840652,74.24365190654353,2.8070561014203257,1.166216557026375,C,708,Incorrect
2,new_learn,2,153,A,48.57705318288609,38.95128284534457,2.4288526591443045,0.6118453201741632,B,1014,Incorrect
2,new_learn,2,154,D,70.30454487379848,31.074957043811683,3.5152272436899237,0.4881242837972859,C,1223,Incorrect
2,new_learn,2,155,A,33.08390106447706,60.968306494200085,1.654195053223853,0.9576879189199493,A,934,Correct
2,new_learn,2,156,B,34.25864133900741,74.13877068858748,1.7129320669503705,1.1645690867072236,B,7125,Correct
2,new_learn,2,157,D,66.12209409166154,34.11130803554222,3.306104704583077,0.5358191736439896,C,1132,Incorrect
2,new_learn,2,158,B,41.28105690141865,99.32483073531095,2.0640528450709326,1.5601907927855132,D,812,Incorrect
2,new_learn,2,159,A,32.548767164631286,73.09007166444144,1.6274383582315641,1.1480961609568037,D,1015,Incorrect
2,new_learn,2,160,A,38.13168637255497,47.07324407000243,1.9065843186277482,0.7394247887547947,C,1014,Incorrect
2,new_learn,2,161,B,39.67786978273354,62.64907485529871,1.9838934891366768,0.9840893665980173,A,916,Incorrect
2,new_learn,2,162,D,54.8515077250362,9.683485113008565,2.7425753862518096,0.15210782846086918,C,734,Incorrect
2,new_learn,2,163,A,49.08846370446571,40.056624678793035,2.4544231852232854,0.6292079890924991,D,773,Incorrect
2,new_learn,2,164,A,33.053340928693636,44.42191732936416,1.652667046434682,0.6977778457015179,A,2047,Correct
2,new_learn,2,165,A,30.987736404660104,24.511476963172242,1.5493868202330052,0.3850253797806869,A,2076,Correct
2,new_learn,2,166,C,96.06961122932621,65.595726855621,4.80348056146631,1.030375267982508,C,1958,Correct
2,new_learn,2,167,A,32.001164648741444,58.43071774710877,1.6000582324370722,0.9178275680914783,A,2405,Correct
2,new_learn,2,168,C,74.39489059708603,35.770570344302044,3.7197445298543017,0.5618828050418812,C,1446,Correct
2,new_learn,2,169,D,49.8240460981693,42.678857257921706,2.491202304908465,0.6703979221254712,B,1976,Incorrect
2,new_learn,2,170,B,74.1394049353653,80.26501618874907,3.706970246768265,1.2607999259941995,C,2059,Incorrect
2,new_learn,2,171,D,37.23061798577631,37.88196445300857,1.8615308992888158,0.5950485061456071,A,2109,Incorrect
2,new_learn,2,172,C,69.07631086653429,43.00528043326501,3.4538155433267144,0.6755253653735711,D,3238,Incorrect
2,new_learn,2,173,A,31.289955402632252,43.085340243514224,1.5644977701316125,0.6767829419322047,A,1697,Correct
2,new_learn,2,174,B,63.057568626766184,76.38805663443253,3.152878431338309,1.1999007877236716,B,3693,Correct
2,new_learn,2,175,D,55.843101837097485,27.417175412674553,2.792155091854874,0.4306679842932054,C,2082,Incorrect
2,new_learn,2,176,B,40.49857253410459,61.00288904705286,2.0249286267052296,0.9582311403898726,C,2520,Incorrect
2,new_learn,2,177,C,65.00248705087809,72.86471151614093,3.2501243525439043,1.1445562120252397,C,989,Correct
2,new_learn,2,178,B,36.76011421520591,78.88807005534764,1.8380057107602954,1.2391709067087857,A,8572,Incorrect
2,new_learn,2,179,A,17.8014549019561,59.7537878166161,0.890072745097805,0.938610304144222,A,959,Correct
2,new_learn,2,180,B,45.826637537257525,79.05044435604239,2.291331876862876,1.2417214762597575,A,1453,Incorrect
2,new_learn,2,181,D,68.23548331132974,5.357036925737216,3.411774165566487,0.08414813925452642,C,2007,Incorrect
2,new_learn,2,182,C,77.81375822897296,73.69815365760931,3.890687911448648,1.1576478905693859,C,916,Correct
2,new_learn,2,183,A,35.70736544682053,55.914250441650175,1.7853682723410265,0.8782989920923402,A,1629,Correct
2,new_learn,2,184,D,35.041289351394965,22.270935408717378,1.7520644675697483,0.34983103534299653,A,14470,Incorrect
2,new_learn,2,185,B,30.169067263073575,69.92304105297103,1.508453363153679,1.0983485604433563,A,703,Incorrect
2,new_learn,2,186,A,19.882944141936548,58.905939929395124,0.9941472070968274,0.9252923406749469,A,917,Correct
2,new_learn,2,187,C,63.28338872181763,28.115918372314667,3.1641694360908814,0.4416438130369703,D,2454,Incorrect
2,new_learn,2,188,D,37.87291204011746,18.812588772268136,1.893645602005873,0.29550745340981704,C,998,Incorrect
2,new_learn,2,189,A,6.2670357079524415,52.271085890572294,0.3133517853976221,0.821072297144915,A,1397,Correct
2,new_learn,2,190,A,13.102554482977903,44.34484210202575,0.6551277241488951,0.6965671508616172,A,820,Correct
2,new_learn,2,191,B,36.82963208402951,94.20325865506527,1.8414816042014757,1.4797413266748607,B,1518,Correct
2,new_learn,2,192,C,72.70571091582214,70.95499607082013,3.6352855457911066,1.1145584719579056,C,1628,Correct
2,new_learn,2,193,C,87.00331508425015,39.24762286379351,4.350165754212508,0.6165002182987824,C,2445,Correct
2,new_learn,2,194,A,25.983113478437087,46.09783919428645,1.2991556739218544,0.7241031647956697,B,1647,Incorrect
2,new_learn,2,195,A,44.326852561920845,59.50469862944644,2.2163426280960423,0.9346976203417179,B,12135,Incorrect
2,new_learn,2,196,A,33.962074615917686,55.38775877957689,1.6981037307958844,0.8700288804036117,D,2411,Incorrect
2,new_learn,2,197,B,42.34885352567602,54.123885711280444,2.117442676283801,0.850176008671461,C,829,Incorrect
2,new_learn,2,198,C,56.13710544846326,46.07110918249338,2.8068552724231632,0.7236832907522723,C,687,Correct
2,new_learn,2,199,A,29.138400742500476,64.60116727069726,1.456920037125024,1.0147527625547395,A,1701,Correct
2,new_learn,2,200,D,41.87817737910329,18.334005422626106,2.0939088689551646,0.28798988373298806,C,2436,Incorrect
2,new_learn,2,201,C,83.37411185394579,48.43445211807195,4.16870559269729,0.7608065947739072,C,839,Correct
2,new_learn,2,202,A,20.215809312410094,27.44813623338657,1.010790465620505,0.4311543157276953,A,7117,Correct
2,new_learn,2,203,B,39.31395760244421,70.47078243170009,1.9656978801222107,1.1069524619007682,B,4951,Correct
2,new_learn,2,204,B,33.57413282805855,70.86453650178991,1.6787066414029277,1.1131375363703446,D,3587,Incorrect
2,new_learn,2,205,C,59.14678877189519,44.54518004936756,2.95733943859476,0.6997140519796387,C,1400,Correct
2,new_learn,2,206,C,76.2469123117668,53.28057071915893,3.81234561558834,0.8369292477519057,C,1060,Correct
2,new_learn,2,207,B,47.5763437231726,96.54625831183799,2.37881718615863,1.516545079220264,A,2476,Incorrect
2,new_learn,2,208,B,56.594288946560916,54.599806818455306,2.829714447328046,0.8576517599414053,B,960,Correct
2,new_learn,2,209,D,58.762128225242215,30.77674657876505,2.9381064112621105,0.4834400047662154,B,2557,Incorrect
2,new_learn,2,210,D,69.30723445514005,7.580662958649377,3.465361722757002,0.11907677530116574,B,804,Incorrect
2,new_learn,2,211,A,16.987002958499907,66.85473933526174,0.8493501479249954,1.0501517897665942,A,840,Correct
2,new_learn,2,212,A,16.665648929528658,29.379724587799323,0.8332824464764329,0.46149563464760884,A,788,Correct
2,new_learn,2,213,B,43.35278445363697,76.26523850444732,2.1676392226818484,1.1979715650492258,D,4295,Incorrect
2,new_learn,2,214,B,35.36329213939029,56.27391049543634,1.7681646069695145,0.8839485190061619,C,946,Incorrect
2,new_learn,2,215,C,75.3672852496087,58.359551699002715,3.7683642624804348,0.9167096944219032,C,1431,Correct
2,new_learn,2,216,A,45.90908595901371,34.216877234476314,2.2954542979506853,0.5374774507430732,B,4557,Incorrect
2,new_learn,2,217,D,56.924649323465125,35.97824389843159,2.846232466173256,0.5651449336018725,A,1422,Incorrect
2,new_learn,2,218,D,70.9915582879366,26.094215599117476,3.5495779143968296,0.4098869801368782,D,2509,Correct
2,new_learn,2,219,C,58.690624289183134,68.99445175886846,2.9345312144591564,1.0837623139205828,D,1894,Incorrect
2,new_learn,2,220,A,29.361486731713526,32.73616100865371,1.468074336585676,0.5142184146575957,B,1942,Incorrect
2,new_learn,2,221,C,64.66053212442874,30.37141243407352,3.2330266062214372,0.47707303091015535,C,829,Correct
2,new_learn,2,222,C,67.51274355042696,46.457924417305435,3.3756371775213485,0.7297593702521831,C,1072,Correct
2,new_learn,2,223,D,47.20218010794983,28.8785500286764,2.3601090053974914,0.45362320308207543,B,548,Incorrect
2,new_learn,2,224,C,62.85204789903147,62.492898724855586,3.1426023949515733,0.9816361576776862,D,2637,Incorrect
2,new_learn,2,225,D,47.81033922881887,25.499830326622842,2.390516961440943,0.4005503981095226,B,1240,Incorrect
2,new_learn,2,226,D,36.30085804996028,12.782336172111265,1.8150429024980141,0.20078446707009914,C,784,Incorrect
2,new_learn,2,227,C,63.30124405434877,56.73883528088666,3.1650622027174387,0.8912515404583745,C,851,Correct
2,new_learn,2,228,D,26.39472216174639,19.213341530757894,1.3197361080873196,0.30180246301970337,A,2093,Incorrect
2,new_learn,2,229,A,47.96341922079836,46.73259949472825,2.398170961039918,0.7340739562789618,C,1006,Incorrect
2,new_learn,2,230,D,74.90277461365272,19.27961414454151,3.745138730682636,0.30284347080268736,C,843,Incorrect
2,new_learn,2,231,C,101.54573362465189,49.640093982538,5.077286681232595,0.7797447728952414,C,745,Correct
2,new_learn,2,232,B,68.72175953630097,74.60154336149097,3.436087976815048,1.171838302854602,B,1652,Correct
2,new_learn,2,233,B,70.57861589640734,82.22960317280553,3.5289307948203668,1.2916595861764488,B,1309,Correct
2,new_learn,2,234,D,69.00503238267774,17.066450064485693,3.4502516191338874,0.26807917072722653,C,1677,Incorrect
2,new_learn,2,235,C,61.99661132339859,71.63364584229365,3.0998305661699295,1.1252186776400137,B,549,Incorrect
2,new_learn,2,236,A,13.656596194720771,33.04312710676718,0.6828298097360386,0.5190402268512676,A,855,Correct
2,new_learn,2,237,C,63.3402516771736,65.77959914631872,3.16701258385868,1.0332635271707815,C,4476,Correct
2,new_learn,2,238,C,76.7503615920822,36.929753970317414,3.8375180796041097,0.5800912188601385,C,2014,Correct
2,new_learn,2,239,D,59.39450360239259,21.353811992310096,2.96972518011963,0.3354248944058951,B,3008,Incorrect
2,new_learn,2,240,C,90.2942915977112,69.5401772840967,4.51471457988556,1.09233455042525,C,1157,Correct
2,new_learn,2,241,C,66.49597725063366,64.17367510718509,3.324798862531683,1.0080377313529543,A,2375,Incorrect
2,new_learn,2,242,C,52.5251063397903,50.59725052955898,2.6262553169895146,0.7947797527775238,B,629,Incorrect
2,new_learn,2,243,D,57.001489449495196,5.9313041512081135,2.8500744724747595,0.09316870773821026,C,608,Incorrect
2,new_learn,2,244,A,3.804050466432958,35.93402620639526,0.19020252332164791,0.5644503637195722,A,988,Correct
2,new_learn,2,245,D,54.32960156277742,4.66338939737647,2.7164800781388707,0.07325234935813224,D,1100,Correct
2,new_learn,2,246,A,39.447694986577936,32.025986297036226,1.9723847493288968,0.503063016373682,C,2557,Incorrect
2,new_learn,2,247,C,72.89968673688489,62.131261843753144,3.644984336844244,0.9759555788329936,B,1023,Incorrect
2,new_learn,2,248,D,24.488580796948433,23.301094795511403,1.2244290398474218,0.3660127411508899,C,2302,Incorrect
2,new_learn,2,249,D,38.4878427156508,21.640088112275556,1.92439213578254,0.33992170918280346,A,1271,Incorrect
2,new_learn,2,250,B,50.283657748961005,61.45449463404605,2.51418288744805,0.9653249443619623,C,1187,Incorrect
2,new_learn,2,251,A,20.923142311688792,48.00158524993814,1.0461571155844396,0.754007137909349,A,974,Correct
2,new_learn,2,252,A,31.344258866130456,68.58214378736164,1.567212943306523,1.077285795449071,B,4789,Incorrect
2,new_learn,2,253,D,40.207517320253686,5.469122224991384,2.0103758660126845,0.08590877101808798,A,1933,Incorrect
2,new_learn,2,254,B,68.65392251474373,78.44643927290723,3.4326961257371864,1.2322337866002155,C,1309,Incorrect
2,new_learn,2,255,A,47.471975808550965,36.49110620190491,2.373598790427548,0.5732009558263471,B,1992,Incorrect
2,new_learn,2,256,C,84.23486513044222,59.117881885521115,4.211743256522111,0.9286215171367111,D,2278,Incorrect
2,new_learn,2,257,C,80.2958198170994,72.40824875166511,4.01479099085497,1.1373861116876671,C,966,Correct
2,new_learn,2,258,B,31.805670322741285,69.66512119318652,1.5902835161370643,1.094297164759787,A,2381,Incorrect
2,new_learn,2,259,C,90.36227220418861,34.901121769576434,4.518113610209431,0.5482255387667206,C,694,Correct
2,new_learn,2,260,C,68.09326988086349,51.03883515345164,3.4046634940431746,0.8017161478293207,C,997,Correct
2,new_learn,2,261,A,18.862117199568054,38.75266478678222,0.9431058599784027,0.6087254350059145,A,836,Correct
2,new_learn,2,262,B,76.51217260094685,72.61339302166382,3.825608630047343,1.140608510345437,C,645,Incorrect
2,new_learn,2,263,D,41.582159086508014,20.57768344421569,2.0791079543254005,0.32323349568122156,D,3365,Correct
2,new_learn,2,264,A,37.89223897044732,47.98000267040844,1.8946119485223663,0.753668119542869,D,2007,Incorrect
2,new_learn,2,265,D,45.20947495270424,14.507863713740184,2.2604737476352117,0.22788899031184048,B,933,Incorrect
2,new_learn,2,266,B,37.1035218657679,72.57292588617862,1.8551760932883952,1.1399728540676766,A,918,Incorrect
2,new_learn,2,267,D,49.64336183475904,34.16194463986773,2.482168091737952,0.5366145715647483,B,717,Incorrect
2,new_learn,2,268,B,44.90686456902009,82.55873837406321,2.2453432284510044,1.2968296298279935,A,1413,Incorrect
2,new_learn,2,269,A,28.56271237244713,50.04908998123577,1.4281356186223564,0.786169267019524,B,1260,Incorrect
2,new_learn,2,270,B,39.67243083231502,58.073011465750895,1.9836215416157512,0.9122087309631941,A,1581,Incorrect
2,new_learn,2,271,A,8.892248605332803,30.671627237254654,0.44461243026664016,0.4817887940110191,A,1007,Correct
2,new_learn,2,272,D,25.4992842404036,29.211784592076285,1.27496421202018,0.4588576393635719,A,2053,Incorrect
2,new_learn,2,273,C,94.2060450726621,33.02707711892917,4.710302253633105,0.5187881142318571,C,965,Correct
2,new_learn,2,274,B,34.15160122695924,55.70646041586528,1.7075800613479617,0.8750350339998648,C,2261,Incorrect
2,new_learn,2,275,C,87.9221488339693,55.42538606387525,4.396107441698465,0.8706199284032429,C,1134,Correct
2,new_learn,2,276,C,52.611905512802544,54.04634973947515,2.630595275640127,0.8489580764743988,B,2854,Incorrect
2,new_learn,2,277,A,34.58506023403856,41.94710061527727,1.729253011701928,0.6589035156617349,A,606,Correct
2,new_learn,2,278,B,28.579936957432718,82.92888380754613,1.4289968478716357,1.3026438607009423,A,718,Incorrect
2,new_learn,2,279,A,18.253473892389138,24.51812259088218,0.9126736946194569,0.38512976905664703,A,2157,Correct
2,new_learn,2,280,D,57.43814574300238,9.629330208557276,2.871907287150119,0.15125716521096905,C,1075,Incorrect
2,new_learn,2,281,C,91.8098331762344,56.14387961853052,4.59049165881172,0.8819059987680259,C,856,Correct
2,new_learn,2,282,C,57.24975566045109,69.23836696210422,2.8624877830225546,1.0875937249735044,C,6735,Correct
2,new_learn,2,283,C,84.58754595188363,52.65881999839633,4.229377297594181,0.827162810268346,C,693,Correct
2,new_learn,2,284,B,48.27519951778976,80.2534437149188,2.413759975889488,1.2606181460003543,C,970,Incorrect
2,new_learn,2,285,C,76.85070501011468,30.049601245834832,3.8425352505057337,0.47201803258608704,C,860,Correct
2,new_learn,2,286,B,60.20014079757806,91.01552797835826,3.0100070398789027,1.429668570297033,D,1527,Incorrect
2,new_learn,2,287,B,46.030065032056434,68.28249847562049,2.3015032516028215,1.0725789778988277,C,1061,Incorrect
2,new_learn,2,288,C,88.77929309290828,71.7017647634101,4.438964654645414,1.1262886871507631,C,796,Correct
2,new_learn,2,289,A,43.23258351646702,65.50331156718661,2.1616291758233506,1.0289236120263838,A,2717,Correct
2,new_learn,2,290,D,59.9614659527504,49.77779216731612,2.99807329763752,0.7819077309237993,C,975,Incorrect
2,new_learn,2,291,C,87.13426858570047,62.17970000062092,4.356713429285024,0.9767164436218397,C,1046,Correct
2,new_learn,2,292,D,41.09354792219289,7.96523257809028,2.0546773961096445,0.12511758075731258,D,1483,Correct
2,new_learn,2,293,C,72.59214333664497,57.68428427364719,3.6296071668322485,0.9061026185083761,C,855,Correct
2,new_learn,2,294,A,29.92797771234136,56.21902506949001,1.496398885617068,0.8830863807514512,A,3150,Correct
2,new_learn,2,295,D,60.82770772987254,39.07836179512038,3.0413853864936273,0.6138414716493711,C,1229,Incorrect
2,new_learn,2,296,B,47.81704274136085,63.48399957072112,2.390852137068043,0.9972043333593751,B,7903,Correct
2,new_learn,2,297,A,11.407366999152869,54.94244299170843,0.5703683499576434,0.8630338763651362,A,1244,Correct
2,new_learn,2,298,A,27.906203475618863,68.77816243750583,1.395310173780943,1.0803648492053688,A,9445,Correct
2,new_learn,2,299,D,64.91685265287101,37.61228962307159,3.2458426326435506,0.5908124638226666,C,1716,Incorrect
2,new_learn,2,300,C,74.98215367602377,75.34924525875479,3.7491076838011885,1.183583176792198,C,759,Incorrect
2,new_learn,2,301,B,38.39543219927167,63.9531807101509,1.9197716099635835,1.0045742134635527,C,1028,Correct
2,new_learn,2,302,A,8.312619045313319,55.214401812836584,0.41563095226566593,0.8673057955378118,A,757,Incorrect
2,new_learn,2,303,B,60.02253646306365,54.88146300641326,3.0011268231531822,0.8620760049960395,B,2116,Correct
2,new_learn,2,304,C,86.16811355829952,59.69884826193553,4.308405677914976,0.9377473156373424,C,870,Incorrect
2,new_learn,2,305,D,27.83309423621939,23.42633585293497,1.3916547118109697,0.3679800230805384,D,1199,Incorrect
2,new_learn,2,306,C,81.85074524518689,51.90280530970322,4.092537262259344,0.8152873593083247,C,2301,Incorrect
2,new_learn,2,307,B,36.580151930983405,85.22660060971128,1.8290075965491701,1.3387363118295017,A,3349,Incorrect
2,new_learn,2,308,C,74.20214583618859,58.76254401820873,3.7101072918094298,0.9230398829692569,C,887,Correct
2,new_learn,2,309,C,68.47079997331137,49.79792671804172,3.423539998665569,0.7822240037070137,C,1148,Incorrect
2,new_learn,2,310,A,35.38197746717772,36.55478662886298,1.769098873358886,0.5742012456338917,A,3117,Correct
2,new_learn,2,311,D,36.857340044630845,29.19677971649568,1.8428670022315423,0.4586219433291116,A,2878,Incorrect
2,new_learn,2,312,D,74.58507736122706,32.65348975481922,3.729253868061353,0.5129198176390481,C,900,Incorrect
2,new_learn,2,313,A,34.052603870000986,52.70683002720231,1.7026301935000492,0.8279169500373235,D,2278,Incorrect
2,new_learn,2,314,A,7.388370005189888,44.833009231334856,0.36941850025949435,0.7042352621974248,A,862,Correct
2,new_learn,2,315,B,64.33071478775776,91.93109111990111,3.2165357393878877,1.4440502024938762,A,2095,Incorrect
2,new_learn,2,316,C,94.14525867301367,32.3604826278382,4.707262933650684,0.5083172724511831,C,1560,Incorrect
2,new_learn,2,317,D,66.7021902971072,30.63063606857456,3.33510951485536,0.48114490623908196,C,10116,Incorrect
2,new_learn,2,318,D,38.49804335150717,22.660352189215036,1.9249021675753584,0.3559479798269767,C,7950,Incorrect
2,new_learn,2,319,A,4.079563993280971,65.51314564621676,0.20397819966404854,1.0290780853785635,A,2687,Correct
2,new_learn,2,320,C,70.78640835578851,32.95135294417947,3.5393204177894257,0.517598641676393,C,2677,Correct
2,new_learn,2,321,D,37.97294697219412,9.033290585488276,1.898647348609706,0.14189459670555904,D,1989,Incorrect
2,new_learn,2,322,A,8.548641248291478,57.46084169099209,0.4274320624145739,0.9025927906275342,A,2135,Correct
2,new_learn,2,323,A,10.090532312430192,35.451036393345035,0.5045266156215096,0.5568635774773858,A,686,Incorrect
2,new_learn,2,324,B,67.80449039967574,61.3271916526506,3.390224519983787,0.9633252738063021,C,861,Incorrect
2,new_learn,2,325,A,-0.13494360968341113,58.32468640152956,-0.006747180484170556,0.916162031609869,A,4219,Incorrect
2,new_learn,2,326,D,58.89091224403302,24.959947081357715,2.944545612201651,0.392069931923917,C,7222,Correct
2,new_learn,2,327,D,53.882251029282756,25.103339703270898,2.694112551464138,0.3943223379618242,C,2191,Correct
2,new_learn,2,328,A,51.78281125090989,49.15192702513064,2.5891405625454946,0.7720766642596603,C,2516,Incorrect
2,new_learn,2,329,B,35.92056257890771,84.67873518107729,1.7960281289453857,1.3301304618007397,C,3207,Incorrect
2,new_learn,2,330,D,69.26874098462451,32.68069809238388,3.4634370492312256,0.5133472052060958,C,883,Incorrect
2,new_learn,2,331,D,58.92456866017715,29.609653696812764,2.9462284330088573,0.4651073526462241,B,1102,Incorrect
2,new_learn,2,332,B,45.58947067906628,95.99526199038661,2.279473533953314,1.5078900492421303,D,1668,Incorrect
2,new_learn,2,333,C,98.78618545223077,43.07430693387476,4.939309272611538,0.6766096311096641,C,782,Correct
2,new_learn,2,334,A,19.58583359380183,48.661655477736325,0.9792916796900915,0.7643754968018699,A,6192,Incorrect
2,new_learn,2,335,A,39.03791014846597,56.34600452916899,1.9518955074232986,0.8850809694398722,B,1061,Correct
2,new_learn,2,336,A,25.225984345271442,74.51986305667077,1.2612992172635722,1.1705552716267715,D,2389,Correct
2,new_learn,2,337,B,73.57598741371963,78.95244231660519,3.6787993706859816,1.240182063824094,C,950,Incorrect
2,new_learn,2,338,B,49.82823010900813,63.213304294162725,2.4914115054504067,0.9929522618983888,C,1111,Incorrect
2,new_learn,2,339,A,22.71234558971672,45.009438753720154,1.135617279485836,0.7070066106544348,D,1117,Incorrect
2,new_learn,2,340,A,15.41784989073489,45.06427603625354,0.7708924945367446,0.7078679926741833,A,1198,Correct
2,new_learn,2,341,A,18.007156448358142,74.55202511168386,0.9003578224179072,1.171060472005539,B,1372,Incorrect
2,new_learn,2,342,A,41.57446021569753,41.25726540906094,2.078723010784876,0.6480676095815507,D,2310,Correct
2,new_learn,2,343,D,51.31541091288803,22.643958784404848,2.5657705456444013,0.35569047282638167,C,2588,Incorrect
2,new_learn,2,344,C,60.17741634183316,65.81830050529396,3.008870817091658,1.0338714466959844,C,847,Correct
2,new_learn,2,345,D,56.15195162822368,12.25500190765989,2.8075975814111835,0.19250111981416604,B,2686,Incorrect
2,new_learn,2,346,A,18.395697162414955,32.17621105909381,0.9197848581207478,0.5054227414180188,A,828,Incorrect
2,new_learn,2,347,D,34.691343648239126,38.956244403175404,1.7345671824119564,0.6119232561423218,C,2541,Incorrect
2,new_learn,2,348,D,37.25831066098104,12.529084232401786,1.8629155330490519,0.1968063949036058,D,1319,Incorrect
2,new_learn,2,349,A,26.135408554825013,29.625965885221905,1.3067704277412506,0.4653635839025749,B,1627,Incorrect
2,new_learn,2,350,C,58.35479410690128,37.821268772548315,2.917739705345064,0.5940951006264141,C,2128,Incorrect
2,new_learn,2,351,D,66.18792334686546,11.842815088832557,3.3093961673432726,0.1860265044044936,C,958,Correct
2,new_learn,2,352,B,72.38561491466396,76.14407258631894,3.619280745733198,1.1960682952579376,C,780,Incorrect
2,new_learn,2,353,C,61.49322487060715,51.12994979665121,3.0746612435303575,0.803147373297872,B,1575,Incorrect
2,new_learn,2,354,D,35.41752115215087,21.73072458572794,1.7708760576075435,0.34134542357853004,B,1261,Incorrect
2,new_learn,2,355,A,12.579308628638252,37.40122296626705,0.6289654314319126,0.5874970365304921,A,789,Correct
2,new_learn,2,356,D,45.111404387954444,28.44080843575321,2.2555702193977223,0.44674717421958443,D,1438,Correct
2,new_learn,2,357,C,71.16603318548238,49.31005088646026,3.558301659274119,0.7745604680652122,C,974,Incorrect
2,new_learn,2,358,A,30.747239699271507,76.01028482407318,1.5373619849635753,1.1939667620028802,B,4172,Incorrect
2,new_learn,2,359,A,19.838881369821927,36.810775888553195,0.9919440684910964,0.578222315522095,A,1400,Correct
2,new_learn,2,360,B,49.42408127077456,98.4197042402068,2.471204063538728,1.5459730990475695,C,1371,Incorrect
2,new_learn,2,361,A,31.75778495715056,66.8118100427485,1.587889247857528,1.0494774580166772,A,2231,Incorrect
2,new_learn,2,362,D,72.99307447082069,15.490651116183187,3.6496537235410345,0.24332657872961816,C,813,Correct
2,new_learn,2,363,B,26.654105098219034,72.49145020267396,1.3327052549109515,1.1386930370239543,D,1464,Incorrect
2,new_learn,2,364,B,35.45418793089158,65.41146224919567,1.7727093965445788,1.027480846313196,A,1108,Incorrect
2,new_learn,2,365,B,37.0114006717281,70.65061386593156,1.8505700335864048,1.1097772474640988,B,948,Correct
2,new_learn,2,366,A,25.413903495437953,29.149457318558987,1.2706951747718975,0.45787860484057075,C,1269,Correct
2,new_learn,2,367,C,66.8934597423523,24.76246384194691,3.3446729871176153,0.3889678724532165,C,927,Incorrect
2,new_learn,2,368,D,40.62619926146366,36.06663066994338,2.031309963073183,0.5665333097621522,C,1517,Incorrect
2,new_learn,2,369,B,62.38581197589672,68.17391805099106,3.119290598794836,1.0708734005771305,C,1022,Incorrect
2,new_learn,2,370,D,27.72028602626597,23.43488440647261,1.3860143013132986,0.3681143034455017,A,5279,Incorrect
2,new_learn,2,371,B,43.95495768689077,61.43612663916517,2.1977478843445386,0.9650364205730673,B,2907,Incorrect
2,new_learn,2,372,D,57.106139004724156,21.57335986887908,2.8553069502362076,0.33887354438659695,C,1086,Incorrect
2,new_learn,2,373,B,62.033527839800065,63.72610221442841,3.1016763919900034,1.0010072727938026,C,4189,Correct
2,new_learn,2,374,A,35.44527846816993,26.350751746719517,1.7722639234084965,0.4139166405203122,A,2717,Incorrect
2,new_learn,2,375,B,56.68134999230182,49.09417973466215,2.8340674996150907,0.7711695719421575,B,1694,Incorrect
2,new_learn,2,376,B,27.32496267450125,63.917327291898125,1.3662481337250625,1.0040110292866076,B,911,Incorrect
2,new_learn,2,377,C,78.50696609982319,70.21529810187108,3.9253483049911595,1.1029393234322775,C,676,Incorrect
2,new_learn,2,378,C,66.75194832032814,57.76677440482016,3.3375974160164072,0.9073983704588096,C,3268,Incorrect
2,new_learn,2,379,B,30.753216373467822,77.808894041252,1.5376608186733909,1.2222192495197195,C,1153,Incorrect
2,new_learn,2,380,A,39.12766333258895,42.315616507302764,1.9563831666294476,0.6646921497573267,C,1405,Incorrect
2,new_learn,2,381,C,75.36441056965919,54.831121178812495,3.768220528482959,0.8612852374172453,C,469,Correct
2,new_learn,2,382,B,52.949173408875026,69.40810511918393,2.6474586704437515,1.0902599657100818,D,2900,Correct
2,new_learn,2,383,B,59.39863951642665,84.32882534517789,2.9699319758213325,1.324634090951338,D,1023,Incorrect
2,new_learn,2,384,C,83.45819151077342,71.81259233672593,4.172909575538671,1.1280295626014842,C,934,Correct
2,new_learn,2,385,A,36.00797075326812,40.95247548537164,1.800398537663406,0.6432799806557982,A,12005,Correct
2,new_learn,2,386,B,48.97093682063484,56.749378676836265,2.448546841031742,0.8914171557346704,A,982,Correct
2,new_learn,2,387,C,70.01041430309802,25.557194990209453,3.5005207151549005,0.40145148013801946,C,2276,Incorrect
2,new_learn,2,388,C,58.28422010959592,51.673859279660846,2.914211005479796,0.8116910834780763,A,2637,Incorrect
2,new_learn,2,389,C,57.84748952488329,48.57116069355459,2.892374476244164,0.7629540080560021,C,720,Correct
2,new_learn,2,390,D,58.522768068256624,23.959786055552307,2.926138403412831,0.37635943926853144,D,1095,Incorrect
2,new_learn,2,391,C,76.12409677193554,65.69991467006187,3.8062048385967775,1.0320118463447134,C,930,Correct
2,new_learn,2,392,D,34.66804019057834,35.608850436184056,1.7334020095289169,0.5593425146654677,A,1013,Incorrect
2,new_learn,2,393,B,62.40146416686817,69.75163881305727,3.120073208343409,1.0956561803547469,C,4030,Incorrect
2,new_learn,2,394,C,76.54369483567862,54.96190541537144,3.8271847417839306,0.8633395914011399,C,20406,Correct
2,new_learn,2,395,C,59.48065057226508,61.55259885525169,2.974032528613254,0.9668659618650911,D,1501,Incorrect
2,new_learn,2,396,D,39.008445339017996,28.67963796859688,1.9504222669509,0.4504986997487943,A,1319,Incorrect
2,new_learn,2,397,C,86.46906058449575,56.465424375767014,4.323453029224788,0.8869568120036985,C,805,Correct
2,new_learn,2,398,A,15.535264585216787,26.63326088244404,0.7767632292608394,0.41835428364713306,A,1197,Correct
2,new_learn,2,399,D,73.70581791174376,13.637366118816818,3.6852908955871886,0.2142152460659463,D,3909,Incorrect
2,new_learn,2,400,D,66.68770080018031,40.38854793811546,3.334385040009016,0.6344218274577135,C,1277,Incorrect
2,new_learn,2,401,D,51.69136845646435,32.12860409407397,2.5845684228232177,0.5046749329601886,A,856,Incorrect
2,new_learn,2,402,D,35.02237863707808,17.884952475101812,1.7511189318539038,0.2809361765279122,B,1365,Incorrect
2,new_learn,2,403,B,68.16289630246682,88.7276054160143,3.4081448151233413,1.3937299667278222,C,2565,Incorrect
2,new_learn,2,404,D,27.688549215259332,38.245274029962005,1.3844274607629665,0.6007553596352857,A,1045,Incorrect
2,new_learn,2,405,B,43.75152814947219,84.3996943817656,2.1875764074736095,1.3257472991748926,D,1966,Incorrect
2,new_learn,2,406,D,63.52913054300171,37.56886970682635,3.1764565271500858,0.5901304253731889,C,1695,Incorrect
2,new_learn,2,407,C,88.0061573722357,53.095340702182405,4.400307868611785,0.8340196614491169,C,742,Incorrect
2,new_learn,2,408,A,33.638661162794975,71.66163237264648,1.6819330581397487,1.1256582890307933,A,1950,Correct
2,new_learn,2,409,C,73.4802427885646,30.15487074006412,3.67401213942823,0.4736716019346762,C,1957,Correct
2,new_learn,2,410,B,75.47679125123877,76.28432369053246,3.773839562561938,1.1982713544512131,C,1381,Incorrect
2,new_learn,2,411,A,23.255733698374677,40.20515381890914,1.1627866849187338,0.6315410793696628,A,1205,Incorrect
2,new_learn,2,412,D,65.4867829831662,10.639677270783878,3.27433914915831,0.16712765975230465,B,1046,Incorrect
2,new_learn,2,413,C,67.28138103529314,57.11184028068836,3.3640690517646568,0.897110689294021,C,14099,Correct
2,new_learn,2,414,D,60.1372434448994,9.141050068262821,3.00686217224497,0.14358727870275478,A,2440,Incorrect
2,new_learn,2,415,A,24.032299819460604,29.81955614232997,1.2016149909730303,0.4684044925502612,A,2682,Correct
2,new_learn,2,416,D,67.44295324745315,19.07417609348474,3.372147662372657,0.2996164574428486,C,1024,Incorrect
2,new_learn,2,417,D,36.14224356061583,20.831419752777606,1.8071121780307917,0.3272191762958571,D,3989,Incorrect
2,new_learn,2,418,C,85.16201684875884,74.65740862404459,4.258100842437942,1.1727158323467488,C,764,Incorrect
2,new_learn,2,419,C,74.29860432785225,30.48452113538814,3.714930216392612,0.47884973823569077,C,1439,Incorrect
2,new_learn,2,420,B,60.118370509893175,74.14492369439238,3.0059185254946588,1.1646657378963943,B,996,Correct
2,new_learn,2,421,D,50.27167653301455,11.751315703724982,2.5135838266507275,0.18458923542418385,D,7329,Incorrect
2,new_learn,2,422,C,96.41570461024801,38.786797022586214,4.8207852305124,0.6092615829121765,C,1244,Correct
2,new_learn,2,423,A,45.63146491080746,43.55929218163833,2.281573245540373,0.6842277615670314,A,2950,Incorrect
2,new_learn,2,424,C,61.22225754285037,48.074411714279066,3.0611128771425182,0.7551510933361512,C,1821,Incorrect
2,new_learn,2,425,D,68.95450907810465,32.76693394108982,3.4477254539052327,0.514701794749949,C,1428,Incorrect
2,new_learn,2,426,C,71.40927439423275,27.829231710814746,3.5704637197116376,0.43714054948871855,D,1105,Correct
2,new_learn,2,427,D,49.33320323129169,50.05394666250843,2.4666601615645845,0.7862455555905592,D,1405,Correct
2,new_learn,2,428,B,63.69225826146528,92.74632165038909,3.184612913073264,1.4568558137216918,A,4460,Incorrect
2,new_learn,2,429,B,71.76678693536917,67.2716385442195,3.5883393467684583,1.05670042722734,D,766,Incorrect
2,new_learn,2,430,D,53.89589154199234,35.906550076068115,2.694794577099617,0.5640187696736481,D,485,Incorrect
2,new_learn,2,431,B,66.96732368832403,94.53322610069584,3.3483661844162014,1.4849244431904447,B,885,Correct
2,new_learn,2,432,D,59.621860952028825,4.316959555883233,2.9810930476014414,0.06781064213303512,C,1280,Incorrect
2,new_learn,2,433,B,56.12996121493099,65.90893766429791,2.806498060746549,1.0352951718603296,A,2461,Incorrect
2,new_learn,2,434,A,30.283295783108553,26.079462112951013,1.5141647891554277,0.40965523291810124,A,2742,Correct
2,new_learn,2,435,B,64.65943609307642,53.34483020923453,3.232971804653821,0.8379386334616304,A,3156,Incorrect
2,new_learn,2,436,A,17.201867290927964,74.36676419418365,0.8600933645463982,1.168150400318459,A,2385,Correct
2,new_learn,2,437,A,9.342179915054855,41.26870847607444,0.4671089957527428,0.6482473568578714,A,4245,Correct
2,new_learn,2,438,A,-1.2089427051509922,45.31460519944099,-0.06044713525754961,0.7118001539744283,A,2854,Incorrect
2,new_learn,2,439,A,38.422780109079056,35.86619579428757,1.9211390054539528,0.5633848860977348,D,6187,Incorrect
2,new_learn,2,440,C,65.3879734459892,42.33256202079866,3.26939867229946,0.6649583292608768,C,870,Correct
2,new_learn,2,441,B,28.217182919370153,63.178476911724445,1.4108591459685076,0.9924051946543293,A,3327,Incorrect
2,new_learn,2,442,D,64.07943848959616,6.872192090594201,3.203971924479808,0.1079481409293431,B,892,Incorrect
2,new_learn,2,443,D,56.25152901979041,43.6446932272246,2.8125764509895204,0.685569238054145,C,709,Correct
2,new_learn,2,444,A,38.927910038314906,65.27286816617692,1.9463955019157453,1.0253038155479823,A,716,Correct
2,new_learn,2,445,B,53.68614852038069,69.14028495544247,2.6843074260190343,1.0860530564156148,B,855,Incorrect
2,new_learn,2,446,B,42.38742390623121,59.25324454829843,2.119371195311561,0.9307477888714691,C,803,Incorrect
2,new_learn,2,447,C,65.6670290834585,31.336887673969567,3.2833514541729247,0.4922386805145566,C,1559,Incorrect
2,new_learn,2,448,C,84.00832256129615,34.919360929769326,4.200416128064807,0.5485120388250688,C,3630,Correct
2,new_learn,2,449,B,29.213544771067717,78.38648940026275,1.460677238553386,1.2312920962027982,A,4933,Correct
2,new_learn,2,450,C,60.86335670657702,29.771673465294427,3.043167835328851,0.46765235321821574,A,5419,Incorrect
2,new_learn,2,451,B,73.78520104003115,82.35038925702388,3.6892600520015577,1.2935568895506302,C,1941,Incorrect
2,new_learn,2,452,C,57.48842595146201,52.51119009338665,2.8744212975731007,0.8248438451432032,A,1854,Incorrect
2,new_learn,2,453,B,61.303585546031066,81.33093743011908,3.0651792773015534,1.277543377700166,B,773,Incorrect
2,new_learn,2,454,C,85.45989762893342,59.75711699532755,4.272994881446671,0.9386625987611339,D,2022,Incorrect
2,new_learn,2,455,A,38.834830791897,63.87872756030539,1.9417415395948499,1.0034047061205962,A,2300,Correct
2,new_learn,2,456,B,30.684559513034515,88.13582673971071,1.5342279756517256,1.3844343290176901,A,8904,Correct
2,new_learn,2,457,D,32.216914506250156,31.776138110237085,1.610845725312508,0.49913841023287736,D,8372,Correct
2,new_learn,2,458,C,67.14079101686158,66.19883574304184,3.3570395508430795,1.0398488802326882,C,1308,Incorrect
2,new_learn,2,459,B,64.22879571593654,88.57336970113087,3.211439785796827,1.3913072377838278,C,5901,Correct
2,new_learn,2,460,D,55.06913459086552,1.1088979194350834,2.753456729543276,0.01741852778639132,A,2607,Incorrect
2,new_learn,2,461,B,61.32543651303487,66.42001224074275,3.066271825651744,1.0433231125343079,C,7212,Incorrect
2,new_learn,2,462,D,37.164437878073244,29.581881808430307,1.858221893903662,0.464671112843631,B,2580,Incorrect
2,new_learn,2,463,B,65.16793443100119,91.55695974874814,3.258396721550059,1.4381733606584175,A,2376,Incorrect
2,new_learn,2,464,B,35.915967116810364,85.6117769084112,1.7957983558405182,1.3447866469811647,A,1164,Correct
2,new_learn,2,465,A,23.95467915608881,44.88463295839273,1.1977339578044406,0.7050461658058045,A,8334,Incorrect
2,new_learn,2,466,C,59.70515082849981,59.96602866941775,2.985257541424991,0.9419441756639887,C,2645,Incorrect
2,new_learn,2,467,B,32.312179266878445,65.46532632957744,1.6156089633439223,1.0283269413092946,A,2038,Incorrect
2,new_learn,2,468,D,53.04393753656042,23.457819290540982,2.652196876828021,0.3684745637620024,A,5203,Incorrect
2,new_learn,2,469,A,26.740710143768165,68.73347196673356,1.3370355071884084,1.0796628529320507,A,2150,Correct
2,new_learn,2,470,D,43.05880170596453,48.57305199820098,2.1529400852982263,0.762983716599916,C,1451,Incorrect
2,new_learn,2,471,A,10.008621881756158,32.91760094612852,0.5004310940878078,0.517068466530789,A,1712,Correct
2,new_learn,2,472,D,42.854636214622836,36.49012144154894,2.1427318107311417,0.5731854872468478,C,1452,Incorrect
2,new_learn,2,473,B,52.83826065965747,89.52382442274266,2.641913032982874,1.4062369456387542,C,1103,Incorrect
2,new_learn,2,474,C,85.14748962094883,42.36651821886029,4.257374481047441,0.6654917119727481,C,8276,Correct
2,new_learn,2,475,C,74.05509971088004,36.30328965739518,3.702754985544002,0.5702507404440752,C,1136,Incorrect
2,new_learn,2,476,A,20.223686145466694,49.07756140705111,1.0111843072733349,0.7709085318624685,A,2268,Incorrect
2,new_learn,2,477,A,36.011993835005896,35.720247509788905,1.8005996917502949,0.5610923358058096,A,16519,Incorrect
2,new_learn,2,478,C,85.81504659900739,35.14148716880013,4.290752329950369,0.5520011896286123,C,1805,Correct
2,new_learn,2,479,C,96.08683509299492,47.60363979342399,4.804341754649746,0.7477562252957777,C,1086,Incorrect
2,new_learn,2,480,B,39.86239153699563,90.41451866053217,1.9931195768497816,1.4202279380089256,A,7566,Incorrect
2,new_learn,2,481,A,35.10174950894059,39.64301267954568,1.7550874754470298,0.6227109870011386,A,2174,Incorrect
2,new_learn,2,482,C,76.03873683481262,67.44580417611272,3.8019368417406314,1.0594362145756575,C,9180,Correct
2,new_learn,2,483,D,65.41521652582061,11.914646912658617,3.2707608262910304,0.18715483605462313,B,19077,Incorrect
2,new_learn,2,484,A,40.356794079291106,35.03827804701504,2.017839703964555,0.5503799845346948,B,1940,Correct
2,new_learn,2,485,D,62.61493143721758,17.90288993688838,3.130746571860879,0.28121793751877583,C,1622,Incorrect
2,new_learn,2,486,D,30.42424969068542,12.035862983673821,1.5212124845342712,0.189058893645615,A,1974,Incorrect
2,new_learn,2,487,A,35.13462011941244,64.1110674304069,1.7567310059706218,1.0070542922658308,A,3140,Incorrect
2,new_learn,2,488,D,56.08847479429803,4.152981065126124,2.8044237397149017,0.06523487402348872,A,1817,Incorrect
2,new_learn,2,489,D,52.054017830500875,38.22319437233506,2.602700891525044,0.6004085331843126,A,2083,Incorrect
2,new_learn,2,490,A,14.706347380093327,48.84811042468945,0.7353173690046663,0.7673043242597368,A,2926,Incorrect
2,new_learn,2,491,B,53.304356772493044,79.18305035495682,2.665217838624652,1.243804446419815,C,2007,Incorrect
2,new_learn,2,492,B,47.65887164395163,68.9462704089833,2.3829435821975813,1.0830054830463864,D,2182,Incorrect
2,new_learn,2,493,A,8.25090551952568,43.16762006035301,0.41254527597628404,0.6780753902728021,A,1822,Correct
2,new_learn,2,494,C,71.28233155978977,46.26381283920592,3.5641165779894886,0.7267102727135123,C,2371,Correct
2,new_learn,2,495,D,28.73338012695081,24.985826061246364,1.4366690063475405,0.39247643798941984,A,3438,Correct
2,new_learn,2,496,C,72.86197554738035,30.2467383084956,3.6430987773690173,0.4751146543251137,C,2991,Correct
2,new_learn,2,497,A,5.240826683903833,55.811349130650456,0.26204133419519166,0.8766826220789327,A,7420,Incorrect
2,new_learn,2,498,B,43.53989509001453,79.4133219241697,2.176994754500727,1.247421543770664,B,2398,Correct
2,new_learn,2,499,D,55.937679838218216,22.889172508216653,2.796883991910911,0.3595422809928145,C,4446,Incorrect
2,new_learn,2,500,A,26.50910731611093,39.4313441434169,1.3254553658055466,0.6193861054106472,A,1695,Incorrect
2,new_learn,2,501,D,60.72519290042744,41.74188135616164,3.036259645021372,0.6556799390776709,C,1666,Incorrect
2,new_learn,2,502,C,59.90629936076536,47.101634512302326,2.9953149680382682,0.7398707447796024,C,1719,Incorrect
2,new_learn,2,503,A,28.446899151835744,37.976659590508646,1.422344957591787,0.5965359738871118,A,13140,Incorrect
2,new_learn,2,504,C,65.82614773296615,30.44163296330925,3.2913073866483074,0.47817605240404615,C,1398,Incorrect
2,new_learn,2,505,A,23.898653243921082,42.245651253351625,1.194932662196054,0.6635931381182295,A,4118,Incorrect
2,new_learn,2,506,D,43.686785734685984,7.710160548017061,2.1843392867342994,0.12111091867824125,A,2229,Incorrect
2,new_learn,2,507,B,63.867513843398235,75.34190997986894,3.193375692169912,1.183467954500899,A,4182,Incorrect
2,new_learn,2,508,B,40.968342348338226,73.50579531223813,2.0484171174169115,1.1546263327460118,A,10076,Correct
2,new_learn,2,509,B,29.33360627037906,77.1120553727796,1.466680313518953,1.2112733333116685,A,1357,Incorrect
2,new_learn,2,510,B,63.1435208323242,73.28423135620854,3.1571760416162102,1.1511460142631975,C,3479,Incorrect
2,new_learn,2,511,D,46.529592333204086,19.212421032672104,2.326479616660204,0.30178800386958354,A,3674,Correct
2,new_learn,2,512,B,26.702876445138426,66.70409980427922,1.3351438222569212,1.04778554954722,A,2174,Incorrect
2,new_learn,2,513,C,81.4788509490044,38.30996607584936,4.073942547450219,0.6017715399158127,C,2341,Incorrect
2,new_learn,2,514,B,30.779302936188717,85.05985283691749,1.5389651468094359,1.3361170439394445,A,8438,Incorrect
2,new_learn,2,515,A,49.2266615342395,52.763958937837515,2.4613330767119748,0.8288143288671191,C,6798,Incorrect
2,new_learn,2,516,C,60.981155334849035,63.47088927402448,3.049057766742452,0.9969983973004324,A,1572,Incorrect
2,new_learn,2,517,B,30.452048360211116,91.25281184440168,1.5226024180105557,1.4333958165489198,A,5382,Incorrect
2,new_learn,2,518,C,66.79990031439979,55.23255087290092,3.33999501571999,0.8675908803066502,C,3876,Incorrect
2,new_learn,2,519,B,71.50200271215486,68.12544739583002,3.575100135607743,1.0701120253062877,C,933,Incorrect
2,new_learn,2,520,A,20.56803005096431,56.55413411311757,1.0284015025482156,0.8883502612995103,A,1529,Incorrect
2,new_learn,2,521,A,16.183441551472946,38.62529346777234,0.8091720775736474,0.606724691005517,A,5558,Incorrect
2,new_learn,2,522,B,43.10558123624055,78.53695839054068,2.1552790618120277,1.2336556575750492,C,11741,Incorrect
2,new_learn,2,523,A,20.602699770104643,25.365191292314172,1.030134988505232,0.39843549310417004,D,804,Incorrect
2,new_learn,2,524,D,55.126063217133584,11.506125163779178,2.756303160856679,0.1807377914290666,A,2004,Incorrect
2,new_learn,2,525,B,66.44713505480557,71.7412802945214,3.3223567527402786,1.1269093956619731,A,2069,Incorrect
2,new_learn,2,526,C,92.38921081601926,38.618276558857495,4.619460540800963,0.6066144696580282,C,1383,Incorrect
2,new_learn,2,527,B,37.5421703502764,56.82708752816741,1.87710851751382,0.8926378035169744,C,1982,Correct
2,new_learn,2,528,C,84.69064808605124,68.54872457434844,4.234532404302562,1.076760847678616,C,877,Correct
2,new_learn,2,529,C,69.79138915534867,27.655351695651003,3.489569457767433,0.4344092485974961,C,1032,Incorrect
2,new_learn,2,530,D,29.123243856991802,38.24596601049544,1.4561621928495903,0.600766229240087,A,2511,Correct
2,new_learn,2,531,B,49.41145786515853,89.11603766641866,2.4705728932579265,1.399831446249261,A,5795,Incorrect
2,new_learn,2,532,A,13.267952194390658,58.26060456450516,0.6633976097195329,0.9151554364677469,A,2672,Correct
2,new_learn,2,533,A,19.383279141419727,31.4161856396422,0.9691639570709865,0.4934842900465655,A,2572,Incorrect
2,new_learn,2,534,A,25.44988471757453,39.33836113916911,1.2724942358787266,0.6179255317953793,C,1982,Incorrect
2,new_learn,2,535,B,59.5660853688735,68.7853744872222,2.978304268443675,1.0804781358174003,C,909,Incorrect
2,new_learn,2,536,A,34.19998473071892,67.79169466997578,1.7099992365359458,1.0648694497479911,A,2847,Incorrect
2,new_learn,2,537,A,-1.0658598840999005,53.64560818207003,-0.053292994204995024,0.8426632428107386,A,1205,Correct
2,new_learn,2,538,C,77.99910992094765,28.333909150009728,3.8999554960473826,0.44506800416575587,C,1232,Incorrect
2,new_learn,2,539,A,11.832535876708336,67.34747435658932,0.5916267938354168,1.0578916533824398,A,1734,Incorrect
2,new_learn,2,540,B,57.786192091277265,72.42790856387477,2.8893096045638633,1.137694927295711,C,2109,Incorrect
2,new_learn,2,541,B,33.99882154487864,59.69898635851801,1.6999410772439318,0.9377494848533873,C,917,Incorrect
2,new_learn,2,542,C,100.47234682103492,51.863724951484144,5.023617341051746,0.8146734864769212,C,1878,Correct
2,new_learn,2,543,A,13.007467901828399,72.11315037042903,0.6503733950914199,1.1327507171547797,A,2102,Incorrect
2,new_learn,2,544,A,3.7402714185514974,33.98614143622051,0.18701357092757487,0.53385306129947,A,3703,Incorrect
2,new_learn,2,545,C,68.84701420311288,33.43344082600964,3.4423507101556434,0.5251712604161047,C,4069,Correct
2,new_learn,2,546,A,33.403345205948185,50.8886996360866,1.6701672602974094,0.7993578246373361,A,2421,Incorrect
2,new_learn,2,547,C,77.87761692434631,73.7637423001448,3.8938808462173156,1.1586781545571279,C,2820,Correct
2,new_learn,2,548,D,40.06673560215288,5.688230670623984,2.003336780107644,0.08935051843378225,A,2119,Incorrect
2,new_learn,2,549,B,38.72963325318669,61.45300971683506,1.9364816626593346,0.965301619336956,A,8591,Incorrect
2,new_learn,2,550,D,28.552696586151978,15.100943438956804,1.4276348293075989,0.2372050648505084,B,1310,Incorrect
2,new_learn,2,551,A,28.799044484212732,62.04067431784809,1.4399522242106366,0.9745326333035425,B,910,Incorrect
2,new_learn,2,552,A,46.206241780089954,51.61975304205974,2.3103120890044977,0.8108411846852713,C,1650,Incorrect
2,new_learn,2,553,A,46.157142767921385,44.045342930067385,2.307857138396069,0.6918626288697142,D,944,Incorrect
2,new_learn,2,554,C,62.313202711315306,29.340680105886584,3.1156601355657654,0.46088232535990736,C,3126,Correct
2,new_learn,2,555,A,35.19657520239855,47.71115949111238,1.7598287601199274,0.749445140757648,A,5523,Correct
2,new_learn,2,556,B,55.37317939741626,82.59298060786067,2.768658969870813,1.2973675055786966,C,1734,Correct
2,new_learn,2,557,B,35.933326419286644,94.28168405043661,1.796666320964332,1.4809732299046283,D,2375,Correct
2,new_learn,2,558,C,52.3105195893022,49.37442649363972,2.6155259794651102,0.775571677738139,C,1949,Correct
2,new_learn,2,559,C,63.18224050701629,50.813816848013076,3.1591120253508143,0.7981815685528757,C,1573,Incorrect
2,new_learn,2,560,A,35.60130031129395,52.19626005041596,1.7800650155646975,0.8198969355962458,A,2190,Incorrect
2,new_learn,2,561,D,33.57368177722731,37.58347821518184,1.6786840888613654,0.5903598952858364,B,677,Correct
2,new_learn,2,562,C,60.14372016432711,57.002260907950394,3.007186008216355,0.895389420532128,C,1598,Incorrect
2,new_learn,2,563,C,61.05404599328637,61.52067879859399,3.0527022996643187,0.9663645627876013,C,1493,Incorrect
2,new_learn,2,564,C,73.64624465521659,57.43803275225322,3.6823122327608298,0.9022345086556434,C,1473,Incorrect
2,new_learn,2,565,D,70.58867090079157,11.885309569296517,3.5294335450395784,0.186694006142712,C,1006,Incorrect
2,new_learn,2,566,A,30.548027367713917,33.88784839952507,1.5274013683856957,0.5323090778895629,A,1794,Incorrect
2,new_learn,2,567,C,91.49827535513856,53.285025896714906,4.574913767756928,0.8369992295173072,C,4071,Correct
2,new_learn,2,568,D,35.80085742058981,8.645137545032096,1.7900428710294904,0.13579750300373067,A,4446,Incorrect
2,new_learn,2,569,D,47.6190759566221,50.384888387954746,2.380953797831105,0.7914439760577014,A,2675,Correct
2,new_learn,2,570,B,60.07182117851751,93.09842474712092,3.0035910589258754,1.4623866362316862,D,1438,Incorrect
2,new_learn,2,571,D,38.464574217241896,2.615221193013781,1.923228710862095,0.04107979843742215,C,700,Incorrect
2,new_learn,2,572,A,31.444146127959698,51.261142095195176,1.572207306397985,0.8052081371044382,B,2399,Correct
2,new_learn,2,573,A,12.854432981840665,57.01602182122213,0.6427216490920332,0.8956055764523339,A,1046,Incorrect
2,new_learn,2,574,D,51.201733608927015,8.286482044933852,2.560086680446351,0.13016375558233956,C,3189,Correct
2,new_learn,2,575,B,51.56263257923017,86.82749195256075,2.5781316289615086,1.3638830542389586,C,3759,Incorrect
2,new_learn,2,576,C,94.5952768821071,67.17483600233663,4.729763844105355,1.0551798564551995,C,861,Incorrect
2,new_learn,2,577,B,27.068541525263512,83.10452540359196,1.3534270762631757,1.3054028324399545,D,6102,Incorrect
2,new_learn,2,578,B,26.853466267687434,74.0059149003563,1.3426733133843718,1.1624821928657538,A,1708,Incorrect
2,new_learn,2,579,C,91.65129426666331,50.327501962047606,4.5825647133331655,0.7905425521874733,C,1752,Incorrect
2,new_learn,2,580,C,61.538190302696236,36.91576153823793,3.076909515134812,0.5798714262510045,C,1435,Incorrect
2,new_learn,2,581,C,77.99702410340416,29.35040654342845,3.899851205170208,0.46103510788354307,C,16912,Correct
2,new_learn,2,582,A,31.576270195123442,57.280711903497085,1.5788135097561722,0.8997633185420993,A,1726,Incorrect
2,new_learn,2,583,D,51.22119448525987,9.06922032876098,2.5610597242629933,0.14245897979311353,B,1845,Incorrect
2,new_learn,2,584,C,58.663377783524076,62.39873946783677,2.9331688891762036,0.9801571075270974,C,1237,Correct
2,new_learn,2,585,D,63.13656926832175,33.07810060411617,3.1568284634160877,0.5195895892629773,C,2485,Incorrect
2,new_learn,2,586,B,45.52650412228139,93.09290601930016,2.2763252061140693,1.4622999482577919,D,756,Correct
2,new_learn,2,587,C,71.49462859717781,28.450583073332012,3.57473142985889,0.4469007138676298,C,990,Incorrect
2,new_learn,2,588,D,48.540941701960044,49.24334259711119,2.427047085098002,0.773512616706449,C,4358,Incorrect
2,new_learn,2,589,A,34.58553847469695,52.33200603900099,1.7292769237348478,0.8220292285987109,C,1021,Incorrect
2,new_learn,2,590,C,51.54167999641736,45.130053597989765,2.577083999820868,0.7089012241977913,C,2142,Correct
2,new_learn,2,591,B,33.05011419743869,86.13147577095987,1.6525057098719345,1.3529500576244737,A,4885,Incorrect
2,new_learn,2,592,A,41.31757947666484,45.57173882773193,2.0658789738332417,0.7158391995625768,B,2485,Incorrect
2,new_learn,2,593,B,66.29667604639879,73.167544149259,3.314833802319939,1.1493130959025948,B,3725,Incorrect
2,new_learn,2,594,B,55.978281409682666,57.07753302058233,2.798914070484133,0.8965717921124513,C,1197,Incorrect
2,new_learn,2,595,A,47.935819662178695,57.97327546618623,2.3967909831089345,0.9106420815455402,A,1525,Incorrect
2,new_learn,2,596,D,54.95118018338163,33.033878477427834,2.747559009169082,0.5188949497213263,C,2494,Correct
2,new_learn,2,597,D,28.621021512792474,10.807732427644046,1.4310510756396237,0.16976746398325357,A,1044,Incorrect
2,new_learn,2,598,B,72.24110549002118,65.87997966960914,3.6120552745010595,1.034840300743445,C,1568,Incorrect
2,new_learn,2,599,D,65.96329808742838,41.411818620935136,3.298164904371419,0.6504953257566142,B,1669,Correct
2,new_learn,2,600,C,52.989014451869075,83.3867585583705,2.6494507225934534,1.3098361404682128,A,1168,Incorrect
2,new_learn,2,601,B,36.27032666589294,42.457315849116945,1.8135163332946467,0.6669179578136364,C,2379,Incorrect
2,new_learn,2,602,B,4.530631854114347,50.465745052698566,0.22653159270571735,0.7927140695774663,A,1349,Incorrect
2,new_learn,2,603,D,61.66441069478148,44.42056251256584,3.083220534739074,0.697756564289015,C,1677,Incorrect
2,new_learn,2,604,C,48.09245437051118,76.89213316483072,2.404622718525559,1.2078188033474015,A,1541,Incorrect
2,new_learn,2,605,D,50.635346676556296,41.02426711665203,2.531767333827815,0.6444076809628967,B,1638,Incorrect
2,new_learn,2,606,A,43.08210877673798,42.311672599115056,2.154105438836899,0.664630198992382,D,1669,Incorrect
2,new_learn,2,607,B,31.564537504782237,72.00551756487276,1.5782268752391118,1.1310600249986755,A,2062,Incorrect
2,new_learn,2,608,C,68.7196729349464,60.58087289629283,3.43598364674732,0.9516021261952528,C,1261,Correct
2,new_learn,2,609,B,45.888240808911576,38.52977860359094,2.294412040445579,0.6052243470274125,D,1965,Incorrect
2,new_learn,2,610,C,54.0716388575235,93.34162754712047,2.703581942876175,1.4662068568807418,C,2310,Correct
2,new_learn,2,611,D,57.34366905047286,61.8743322846164,2.8671834525236433,0.9719197387556232,C,967,Incorrect
2,new_learn,2,612,A,48.87330429339086,8.22019519360002,2.443665214669543,0.12912252415643977,C,2789,Incorrect
2,new_learn,2,613,B,27.931824331989375,75.46707178905307,1.396591216599469,1.1854339916021133,B,1862,Correct
2,new_learn,2,614,A,44.70452385025261,16.07751621007794,2.2352261925126307,0.2525450340677583,A,1090,Correct
2,new_learn,2,615,B,5.2954473745882495,58.897910996802885,0.26477236872941246,0.9251662224967071,B,1126,Correct
2,new_learn,2,616,A,36.30156701216287,19.704709352769882,1.8150783506081436,0.3095208507189197,C,7727,Incorrect
2,new_learn,2,617,C,65.65899072808674,68.31526310023163,3.282949536404337,1.0730936434187077,C,789,Correct
2,new_learn,2,618,B,41.042344435439944,45.58785535160158,2.052117221771997,0.7160923573275282,C,13841,Incorrect
2,new_learn,2,619,C,56.249897175440225,53.33642407475762,2.812494858772011,0.8378065902100416,C,724,Correct
2,new_learn,2,620,A,33.45248897596267,44.62366835664328,1.6726244487981337,0.7009469434272892,A,1902,Correct
2,new_learn,2,621,B,18.857011934113025,38.26679275078436,0.9428505967056512,0.6010933749115366,A,956,Incorrect
2,new_learn,2,622,C,24.93838951684338,68.33893887607275,1.2469194758421691,1.0734655416359602,B,791,Incorrect
2,new_learn,2,623,C,47.7341068184088,99.4617839343343,2.38670534092044,1.5623420486051995,D,1447,Incorrect
2,new_learn,2,624,B,3.1355217555095685,63.24455114713778,0.1567760877754784,0.9934430863171597,C,666,Incorrect
2,new_learn,2,625,B,4.004357727482521,49.57744454848626,0.20021788637412605,0.778760677886399,A,1287,Incorrect
2,new_learn,2,626,C,34.17809920604577,56.55857286256176,1.7089049603022886,0.8884199850127353,B,534,Incorrect
2,new_learn,2,627,C,34.371644803358215,86.71643239364222,1.7185822401679107,1.3621385347669117,D,1546,Incorrect
2,new_learn,2,628,D,59.346950003124384,38.61994705035428,2.967347500156219,0.606640709677099,C,1798,Incorrect
2,new_learn,2,629,A,62.124638452097074,23.893724416710853,3.106231922604854,0.3753217454721894,C,1308,Incorrect
2,new_learn,2,630,C,60.4178217261734,86.97747110592394,3.02089108630867,1.3662389212709456,C,791,Correct
2,new_learn,2,631,C,59.34581431320305,72.11786006518858,2.9672907156601527,1.1328246968670657,C,1455,Correct
2,new_learn,2,632,D,98.25451421861028,55.85104262383788,4.912725710930514,0.8773061260118974,C,837,Incorrect
2,new_learn,2,633,C,59.573960053073534,66.97693827063863,2.9786980026536765,1.0520712861548769,C,1246,Correct
2,new_learn,2,634,B,31.793621255470438,43.79918136898455,1.5896810627735218,0.687995932110244,D,2084,Incorrect
2,new_learn,2,635,C,55.374226600754575,98.29329640430583,2.7687113300377284,1.5439874894044563,B,2577,Incorrect
2,new_learn,2,636,C,43.47006586935274,56.393875021480156,2.173503293467637,0.8858329173747151,B,2374,Incorrect
2,new_learn,2,637,D,95.53265529957578,55.09912606080884,4.776632764978789,0.8654950482592749,C,2219,Incorrect
2,new_learn,2,638,B,8.180714766535534,61.066320838022385,0.40903573832677664,0.959227524632442,B,911,Correct
2,new_learn,2,639,A,59.228369468432675,38.74844123230742,2.9614184734216336,0.6086590915673641,A,901,Correct
2,new_learn,2,640,D,69.82740094753642,33.40597048840116,3.491370047376821,0.5247397573619925,A,963,Incorrect
2,new_learn,2,641,B,29.67218540471992,40.795297781172046,1.483609270235996,0.6408110390516905,D,1967,Incorrect
2,new_learn,2,642,A,46.80639137003984,37.11166024990335,2.340319568501992,0.5829485960180836,C,772,Incorrect
2,new_learn,2,643,C,69.18527410862498,74.48741278688442,3.459263705431249,1.1700455439809325,B,560,Incorrect
2,new_learn,2,644,D,88.08314173706675,72.3341002600418,4.4041570868533375,1.136221389904874,C,316,Incorrect
2,new_learn,2,645,C,50.746296564925004,73.20558081729948,2.53731482824625,1.1499105744870095,C,366,Correct
2,new_learn,2,646,D,63.04736075493791,59.379205481171596,3.152368037746896,0.9327263785782374,D,887,Correct
2,new_learn,2,647,C,44.84801419471183,81.01147182418148,2.2424007097355916,1.2725252236967253,A,1238,Incorrect
2,new_learn,2,648,D,82.24154324093057,70.4805376215908,4.112077162046528,1.1071056960652434,C,670,Incorrect
2,new_learn,2,649,B,46.39458123884948,58.11339873980163,2.319729061942474,0.9128431327804757,D,661,Incorrect
2,new_learn,2,650,B,44.20488647398723,42.024936086796984,2.210244323699362,0.66012615238931,B,620,Correct
2,new_learn,2,651,C,25.399547628936254,79.95479806521695,1.2699773814468127,1.255927031104705,A,795,Incorrect
2,new_learn,2,652,A,65.30580957128427,43.93910524095215,3.2652904785642134,0.6901938511514202,C,574,Incorrect
2,new_learn,2,653,A,25.210062341329813,22.593186907043997,1.2605031170664907,0.3548929500417526,D,693,Incorrect
2,new_learn,2,654,B,39.81375260339638,56.18024104813592,1.990687630169819,0.8824771627686377,B,399,Correct
2,new_learn,2,655,D,79.149627184285,65.66619823104946,3.95748135921425,1.0314822297591804,C,1198,Incorrect
2,new_learn,2,656,D,78.64541746215284,59.37276849702606,3.932270873107642,0.9326252666677228,C,789,Incorrect
2,new_learn,2,657,A,70.53784835364213,32.26498384951871,3.5268924176821064,0.5068171811492065,D,430,Incorrect
2,new_learn,2,658,B,11.644590089542378,57.44034032051476,0.5822295044771189,0.9022707558531338,B,760,Correct
2,new_learn,2,659,A,70.20838109925157,35.02648688023957,3.5104190549625787,0.5501947693200996,C,756,Incorrect
2,new_learn,2,660,D,70.19015190506835,59.503856921463864,3.509507595253417,0.9346843988236452,D,548,Correct
2,new_learn,2,661,A,29.615514399921324,25.635382455738995,1.4807757199960663,0.4026796459745715,B,592,Incorrect
2,new_learn,2,662,C,38.068258539007765,76.65457654577757,1.903412926950388,1.2040872727012564,A,773,Incorrect
2,new_learn,2,663,A,35.711015276719614,40.26546694648047,1.7855507638359809,0.6324884757621285,A,653,Correct
2,new_learn,2,664,D,70.30646759462434,49.581176245133726,3.5153233797312167,0.7788192952402644,C,526,Incorrect
2,new_learn,2,665,B,50.515545956285294,50.229600568566646,2.5257772978142645,0.7890047206947934,D,620,Incorrect
2,new_learn,2,666,B,6.970094158501578,47.839181259490545,0.3485047079250789,0.7514561019928301,B,837,Correct
2,new_learn,2,667,A,46.77790458048172,34.66924979332032,2.338895229024086,0.5445833022808229,C,567,Incorrect
2,new_learn,2,668,B,31.77355031015351,36.40283890040446,1.5886775155076753,0.5718144562966171,A,590,Incorrect
2,new_learn,2,669,D,64.84520268278077,41.238911376474306,3.2422601341390385,0.6477793051118611,D,517,Correct
2,new_learn,2,670,D,79.6629280155618,58.93414639747488,3.9831464007780903,0.9257354068394624,D,771,Correct
2,new_learn,2,671,D,83.59271568633471,52.334382144190165,4.179635784316735,0.8220665523717433,C,342,Incorrect
2,new_learn,2,672,C,38.07938053230888,56.618512204529054,1.903969026615444,0.8893615099946626,C,769,Correct
2,new_learn,2,673,D,70.27151436515295,26.80068942118139,3.5135757182576475,0.4209842449836257,D,499,Correct
2,new_learn,2,674,C,49.234161440105595,86.96275542615138,2.4617080720052797,1.3660077679136153,B,1143,Incorrect
2,new_learn,2,675,A,60.2256833334441,12.480887388339754,3.011284166672205,0.19604932064744834,C,502,Incorrect
2,new_learn,2,676,C,34.04494812455311,83.30914173467006,1.7022474062276556,1.3086169382525514,D,381,Incorrect
2,new_learn,2,677,B,48.049640974579575,36.72695762661104,2.4024820487289786,0.5769057013423244,C,314,Incorrect
2,new_learn,2,678,B,29.635031420915862,52.38423224326539,1.4817515710457931,0.8228495958969206,A,381,Incorrect
2,new_learn,2,679,C,53.64466071365766,67.4158237874431,2.682233035682883,1.0589652837316763,B,736,Incorrect
2,new_learn,2,680,A,43.862036126199065,50.64158620567433,2.193101806309953,0.7954761759494033,C,334,Incorrect
2,new_learn,2,681,C,75.4922999328651,67.75029508786321,3.7746149966432547,1.0642191466328585,D,359,Incorrect
2,new_learn,2,682,C,48.65258795902162,68.97899619161392,2.432629397951081,1.083519538437863,C,692,Correct
2,new_learn,2,683,B,38.22988795727184,52.647858661564726,1.911494397863592,0.8269906299920274,C,517,Incorrect
2,new_learn,2,684,D,78.90956934477923,73.63991532180273,3.945478467238962,1.1567330849297495,D,839,Correct
2,new_learn,2,685,C,57.73602728976966,98.74198533147603,2.886801364488483,1.5510354785911813,C,1541,Correct
2,new_learn,2,686,B,9.608108020001008,36.785908031829955,0.48040540100005047,0.5778316921421337,D,1149,Incorrect
2,new_learn,2,687,B,7.157389533979462,56.07710298294695,0.35786947669897307,0.880857073829122,B,684,Correct
2,new_learn,2,688,D,88.75362782991853,60.999130497221216,4.437681391495926,0.9581721012271764,D,934,Correct
2,new_learn,2,689,C,50.94889877868658,52.79176554674013,2.547444938934329,0.8292511140583678,C,1375,Correct
2,new_learn,2,690,B,8.122269536730325,57.0684310964428,0.4061134768365163,0.8964288194224002,B,2677,Correct
2,new_learn,2,691,C,29.822012555800747,60.50716420503824,1.4911006277900372,0.9504443127804971,C,743,Correct
2,new_learn,2,692,C,57.776252794865165,96.09640188879153,2.888812639743258,1.509478751051199,D,494,Incorrect
2,new_learn,2,693,D,97.77626481736361,52.712876788196766,4.88881324086818,0.8280119323369145,A,516,Incorrect
2,new_learn,2,694,A,31.4883432431105,29.626083082086588,1.574417162155525,0.4653654248266204,C,958,Incorrect
2,new_learn,2,695,C,41.01523738296751,71.54630426384732,2.0507618691483755,1.1238467193340143,B,951,Incorrect
2,new_learn,2,696,A,70.16169350444092,18.27768399048105,3.5080846752220456,0.28710518874565516,D,766,Incorrect
2,new_learn,2,697,D,78.96167092371618,56.48991562882334,3.948083546185809,0.8873415197070933,D,540,Correct
2,new_learn,2,698,B,11.72921912192569,37.328590346347774,0.5864609560962845,0.5863561260047452,A,1173,Incorrect
2,new_learn,2,699,C,56.2141044629482,57.27710974020532,2.81070522314741,0.8997067358934271,D,422,Incorrect
2,new_learn,2,700,C,32.560780488545845,67.47523390716245,1.6280390244272922,1.0598984957099722,C,614,Correct
2,new_learn,2,701,D,90.33505836018418,33.824047779139946,4.5167529180092085,0.531306900088081,D,815,Correct
2,new_learn,2,702,A,41.97349517684901,25.568166788048753,2.0986747588424506,0.4016238247354625,C,1117,Incorrect
2,new_learn,2,703,C,46.25668815242318,86.22991022947879,2.312834407621159,1.3544962624831896,A,2165,Incorrect
2,new_learn,2,704,D,76.88587409192748,36.642268831162674,3.8442937045963737,0.5755754128542147,D,655,Correct
2,new_learn,2,705,A,36.904844046894304,5.327409408674207,1.8452422023447153,0.08368275130478015,C,821,Incorrect
2,new_learn,2,706,C,71.86421193526454,81.75964383542296,3.5932105967632264,1.284277482167414,D,678,Incorrect
2,new_learn,2,707,D,89.12432016551605,44.626855799804,4.456216008275803,0.7009970116673766,B,1125,Incorrect
2,new_learn,2,708,A,70.80764587352553,34.32160808082755,3.5403822936762763,0.5391225590305796,A,812,Correct
2,new_learn,2,709,C,47.05416644593208,84.57492248170777,2.3527083222966043,1.3284997757322967,B,733,Incorrect
2,new_learn,2,710,B,12.31229310810005,61.562485696370665,0.6156146554050025,0.967021264002224,C,639,Incorrect
2,new_learn,2,711,C,41.955470544502326,73.3812724965608,2.0977735272251166,1.1526703329313306,D,1150,Incorrect
2,new_learn,2,712,A,60.471335585067294,33.106217304074505,3.023566779253365,0.5200312453531388,D,637,Incorrect
2,new_learn,2,713,B,43.49918523380249,60.668223662019805,2.174959261690125,0.9529742288147194,A,1910,Incorrect
2,new_learn,2,714,C,60.39208968744925,52.472233554222804,3.0196044843724628,0.824231917256971,D,813,Incorrect
2,new_learn,2,715,D,94.95618719953563,67.55491115185552,4.747809359976782,1.0611500629429025,C,541,Incorrect
2,new_learn,2,716,C,37.20537070519524,59.85716812819589,1.860268535259762,0.9402341982811465,C,1169,Correct
2,new_learn,2,717,A,25.106017068915843,25.885599286213232,1.2553008534457921,0.40661004275668333,C,765,Incorrect
2,new_learn,2,718,D,88.75751780276757,39.13516152703359,4.437875890138378,0.6147336797518932,D,933,Correct
2,new_learn,2,719,A,28.54929611318362,25.16138924987769,1.427464805659181,0.3952341781076448,A,5949,Correct
2,new_learn,2,720,A,30.801281848855375,11.360765962370756,1.5400640924427689,0.1784544944326847,B,2060,Incorrect
2,new_learn,2,721,A,69.33531194410439,30.801241211574805,3.466765597205219,0.4838247655586529,D,1791,Incorrect
2,new_learn,2,722,A,56.64557502878195,11.481112284490466,2.8322787514390972,0.18034489003997384,C,412,Incorrect
2,new_learn,2,723,A,35.343065772262996,47.086363177074304,1.7671532886131498,0.739630863206788,C,853,Incorrect
2,new_learn,2,724,B,47.25896061429655,49.85279893256369,2.3629480307148274,0.7830859344371558,A,47,Incorrect
2,new_learn,2,725,D,81.67209580821796,52.78557941532696,4.083604790410898,0.8291539425333586,B,78,Incorrect
2,new_learn,2,726,C,33.52647035963969,87.02901958521068,1.6763235179819844,1.3670486428901003,B,935,Incorrect
2,new_learn,2,727,C,56.20783994441505,85.14546453952427,2.8103919972207523,1.3374618294192984,D,770,Incorrect
2,new_learn,2,728,D,75.12522531847718,58.38594081472457,3.7562612659238592,0.9171242136823359,D,1046,Correct
2,new_learn,2,729,A,40.217757117357394,37.61532776553217,2.0108878558678698,0.5908601868528401,B,1456,Incorrect
2,new_learn,2,730,B,48.95135264541862,52.062310866664156,2.4475676322709314,0.8177928667381009,C,2733,Incorrect
2,new_learn,2,731,A,47.45609876657883,1.9990854509477813,2.3728049383289416,0.031401560832978945,D,644,Incorrect
2,new_learn,2,732,B,17.841873239443917,29.18861963860282,0.8920936619721958,0.4584937651253069,C,879,Incorrect
2,new_learn,2,733,B,45.5222276324822,33.52885470258464,2.2761113816241103,0.5266700180845975,D,5262,Incorrect
2,new_learn,2,734,A,53.27846323002945,10.157597447291533,2.6639231615014727,0.15955516759266755,C,884,Incorrect
2,new_learn,2,735,A,30.468320373065833,11.827744843991601,1.5234160186532915,0.18578978155209286,D,3831,Incorrect
2,new_learn,2,736,A,36.65148107966796,42.505415805149795,1.8325740539833981,0.6676735101561903,C,541,Incorrect
2,new_learn,2,737,D,94.72495596596805,42.50293571127712,4.736247798298402,0.6676345529327373,D,736,Correct
2,new_learn,2,738,A,24.07796013900992,25.26015565032835,1.203898006950496,0.3967855970980313,C,693,Incorrect
2,new_learn,2,739,B,36.08843995841176,32.238330112231566,1.804421997920588,0.5063985052229465,D,1045,Incorrect
2,new_learn,2,740,B,44.219400442252564,56.62937580596437,2.210970022112628,0.8895321550469664,C,485,Incorrect
2,new_learn,2,741,A,56.33796432886197,23.23251394126585,2.8168982164430987,0.3649354756115162,D,1037,Incorrect
2,new_learn,2,742,B,14.045286880825133,60.851075177765324,0.7022643440412567,0.9558464537075386,C,646,Incorrect
2,new_learn,2,743,A,76.00636805657618,19.344076723332165,3.8003184028288093,0.30385604662248816,D,335,Incorrect
2,new_learn,2,744,B,9.941311041349584,35.16175851458246,0.4970655520674792,0.5523196111835531,D,429,Incorrect
2,new_learn,2,745,A,64.5506752974628,41.059994538279675,3.22753376487314,0.6449688859894823,C,1191,Incorrect
2,new_learn,2,746,A,57.39124190879045,11.21374240020351,2.8695620954395222,0.1761450537186386,C,1415,Incorrect
2,new_learn,2,747,D,85.57143579362088,64.75205053001453,4.278571789681044,1.0171228312498437,D,1387,Correct
2,new_learn,2,748,C,32.94516404690499,74.43387773432877,1.6472582023452498,1.1692046173418407,C,1704,Correct
2,new_learn,2,749,A,66.53042286412767,29.707962370289234,3.3265211432063837,0.4666515816781134,D,709,Incorrect
2,new_learn,2,750,D,69.48843419798835,65.21773758716877,3.4744217098994175,1.0244378264379816,D,731,Correct
2,new_learn,2,751,B,7.959994262399263,33.88039861935335,0.3979997131199632,0.5321920570162713,B,870,Correct
2,new_learn,2,752,C,76.06755701926865,78.386791425577,3.8033778509634324,1.2312968404053402,A,582,Incorrect
2,new_learn,2,753,D,88.32670221233828,63.432290240864496,4.416335110616914,0.9963920851053771,C,456,Incorrect
2,new_learn,2,754,C,38.208369266330905,90.76273346689477,1.9104184633165453,1.4256976833966253,B,766,Incorrect
2,new_learn,2,755,B,44.8044069731161,67.37186150940181,2.240220348655805,1.0582747258830285,C,565,Incorrect
2,new_learn,2,756,C,35.0293324114604,78.3725282673147,1.7514666205730203,1.2310727952392713,D,502,Incorrect
2,new_learn,2,757,B,41.164323152680865,37.51635873528029,2.0582161576340434,0.5893055849609792,B,1166,Correct
2,new_learn,2,758,B,3.8564164403468624,51.17739288138621,0.19282082201734313,0.8038926075302075,B,827,Correct
2,new_learn,2,759,A,38.04867600577168,2.887426026517314,1.902433800288584,0.0453555819634538,C,726,Incorrect
2,new_learn,2,760,C,63.00628148386768,73.2456671431614,3.1503140741933837,1.1505402490211956,A,588,Incorrect
2,new_learn,2,761,C,33.892138698855234,56.08381835530489,1.6946069349427617,0.8809625586514512,D,500,Incorrect
2,new_learn,2,762,C,42.60989222611285,85.60148005809764,2.130494611305642,1.3446249044346636,C,893,Correct
2,new_learn,2,763,A,69.52531463575008,18.864961060195228,3.476265731787504,0.29633011538483417,C,534,Incorrect
2,new_learn,2,764,C,47.8598718829234,69.01152812196531,2.39299359414617,1.084030548804858,D,1093,Incorrect
2,new_learn,2,765,B,20.385178933679768,35.62318319031172,1.0192589466839883,0.5595676530408336,B,935,Correct
2,new_learn,2,766,D,86.79276370210783,34.93849212493018,4.339638185105391,0.5488125509359274,C,636,Incorrect
2,new_learn,2,767,A,51.963291253365966,27.977901025782593,2.5981645626682983,0.4394758416273047,D,545,Incorrect
2,new_learn,2,768,C,64.89078365864735,86.40658911340037,3.2445391829323675,1.357271527902052,B,1245,Incorrect
2,new_learn,2,769,A,29.884819747872232,10.298829285198504,1.4942409873936118,0.16177363211477522,C,1893,Incorrect
2,new_learn,2,770,A,70.46086501190928,15.781068100222573,3.523043250595464,0.2478884380472973,D,852,Incorrect
2,new_learn,2,771,B,36.82380128347576,37.12472894954694,1.841190064173788,0.5831538786720449,A,1653,Incorrect
2,new_learn,2,772,C,54.93793742683463,86.028969721543,2.746896871341731,1.3513398963654915,C,943,Correct
2,new_learn,2,773,B,30.250515996492766,58.89069179578906,1.5125257998246382,0.925052823552358,C,1774,Incorrect
2,new_learn,2,774,C,54.35644305462109,58.71639645155099,2.7178221527310544,0.9223149986872919,D,638,Incorrect
2,new_learn,2,775,C,65.94259111444163,61.57347351922432,3.297129555722081,0.9671938603200039,B,813,Incorrect
2,new_learn,2,776,D,65.49994191764424,70.47306371108283,3.274997095882212,1.1069882961535162,A,571,Incorrect
2,new_learn,2,777,D,68.16817043798397,73.45488570762616,3.4084085218991986,1.1538266465467812,D,2705,Correct
2,new_learn,2,778,C,72.22134273856835,85.56828282887584,3.6110671369284177,1.34410344357745,D,1092,Incorrect
2,new_learn,2,779,B,13.415949822690347,47.04684449883892,0.6707974911345174,0.7390101052606686,A,2853,Incorrect
2,new_learn,2,780,D,82.5328060305524,30.344300556147513,4.126640301527619,0.47664715852756845,D,1134,Correct
2,new_learn,2,781,C,47.39286411768629,83.90402056214187,2.3696432058843144,1.3179612730233592,C,1207,Correct
2,new_learn,2,782,B,11.005930045718523,65.46472255326012,0.5502965022859262,1.02831745721308,B,3187,Correct
2,new_learn,2,783,D,98.20070397618018,42.34203126894386,4.910035198809009,0.6651070718629167,D,599,Correct
2,new_learn,2,784,C,67.357889088559,73.95151987892707,3.36789445442795,1.1616277578671843,C,645,Correct
2,new_learn,2,785,D,54.21046869864847,59.27543969109909,2.7105234349324236,0.9310964293593088,A,2606,Incorrect
2,new_learn,2,786,B,17.728210839856967,36.16210808136829,0.8864105419928484,0.5680330654337336,D,3116,Incorrect
2,new_learn,2,787,A,68.41903572708313,39.575987835836834,3.4209517863541565,0.6216581632181201,C,478,Incorrect
2,new_learn,2,788,C,45.558923004907285,83.59979422421033,2.277946150245364,1.3131824968819878,A,5784,Incorrect
2,new_learn,2,789,A,55.24351254701779,33.79104630830163,2.762175627350889,0.5307885141963645,C,787,Incorrect
2,new_learn,2,790,D,79.19517772831712,29.942538071887075,3.9597588864158557,0.4703362881823656,D,581,Correct
2,new_learn,2,791,B,18.77236252470067,37.52221770186729,0.9386181262350335,0.5893976173929159,C,630,Incorrect
2,new_learn,2,792,A,48.89655097757381,25.29366327899462,2.4448275488786906,0.39731193369831713,B,709,Incorrect
2,new_learn,2,793,D,77.74733184430286,71.39831835236375,3.887366592215143,1.1215221620722562,A,596,Incorrect
2,new_learn,2,794,C,46.926212030765306,100.47095595390707,2.3463106015382653,1.5781940856196908,C,870,Correct
2,new_learn,2,795,C,29.049646430208526,66.14704517292046,1.4524823215104263,1.0390353558595955,D,1821,Incorrect
2,new_learn,2,796,B,-0.8023385042621953,45.39180246433477,-0.040116925213109764,0.7130127657757661,A,3141,Incorrect
2,new_learn,2,797,D,61.14382991249032,52.46783301322805,3.057191495624516,0.8241627937206663,D,741,Correct
2,new_learn,2,798,D,72.79896179650885,57.126979343702686,3.639948089825442,0.8973484931397612,C,661,Incorrect
2,new_learn,2,799,D,80.94373773341849,51.08509487002709,4.047186886670925,0.8024427937580738,D,464,Correct
2,new_learn,2,800,B,4.486659782151296,59.981531643523276,0.2243329891075648,0.9421876958117822,A,1062,Incorrect
2,new_learn,2,801,C,70.72431093808429,72.60573064387818,3.5362155469042142,1.140488149996635,D,684,Incorrect
2,new_learn,2,802,C,46.76330705419273,62.40041992029304,2.338165352709636,0.9801835040125539,C,774,Correct
2,new_learn,2,803,C,55.577265545986094,77.0356781267412,2.7788632772993047,1.2100736023363903,B,829,Incorrect
2,new_learn,2,804,C,68.4783054685441,83.12470325767927,3.4239152734272045,1.3057197854307838,C,902,Correct
2,new_learn,2,805,D,84.70503017406172,37.34035790980349,4.235251508703086,0.5865409704592608,D,630,Correct
2,new_learn,2,806,D,74.57837761880913,29.554794852345033,3.7289188809404563,0.464245631932403,C,1253,Incorrect
2,new_learn,2,807,A,70.06062752706094,31.254351356236747,3.5030313763530474,0.4909422030673378,A,813,Correct
2,new_learn,2,808,A,69.17746100032537,26.067326785495244,3.458873050016268,0.4094646116401815,B,790,Incorrect
2,new_learn,2,809,A,66.14897370993953,20.39505322436128,3.3074486854969765,0.32036474689613115,C,878,Incorrect
2,new_learn,2,810,D,62.793826469497084,41.48573155017337,3.139691323474854,0.6516563473341148,C,1702,Incorrect
2,new_learn,2,811,B,13.581022558438294,70.66149790320777,0.6790511279219147,1.1099482135218406,D,1981,Incorrect
2,new_learn,2,812,C,73.30478441176727,85.0017674409092,3.6652392205883637,1.3352046406725422,D,2407,Incorrect
2,new_learn,2,813,C,59.793460779765404,50.69452404415476,2.98967303898827,0.7963077215717386,C,1562,Correct
2,new_learn,2,814,A,32.45393803025304,34.056290876799736,1.622696901512652,0.5349549661353558,A,1991,Correct
2,new_learn,2,815,C,27.952256250816895,76.7188560927466,1.397612812540845,1.2050969734639263,B,1303,Incorrect
2,new_learn,2,816,C,73.3423409793725,74.04619777424348,3.6671170489686244,1.163114954769101,D,1494,Incorrect
2,new_learn,2,817,B,47.77895258413085,44.56297455553325,2.3889476292065424,0.6999935674288607,C,1541,Incorrect
2,new_learn,2,818,A,59.82583339065339,5.80548986804898,2.9912916695326697,0.09119242159976326,B,565,Incorrect
2,new_learn,2,819,C,39.39450768172115,87.6913222315588,1.9697253840860578,1.3774520685312022,A,1100,Incorrect
2,new_learn,2,820,D,56.776755739237295,30.842825849605397,2.838837786961865,0.48447797552534844,C,412,Incorrect
2,new_learn,2,821,B,36.69908568307832,62.718375718405035,1.8349542841539161,0.9851779420101286,D,710,Incorrect
2,new_learn,2,822,C,47.188621216137165,98.61493124891112,2.359431060806858,1.5490397177292086,A,1655,Incorrect
2,new_learn,2,823,A,40.73705504557145,11.221700999224709,2.0368527522785724,0.17627006709972792,C,717,Incorrect
2,new_learn,2,824,B,37.26177045316195,71.06660511809609,1.8630885226580975,1.1163116227728873,D,535,Incorrect
2,new_learn,2,825,A,56.24777473458606,49.663341187134264,2.8123887367293032,0.7801099391311219,D,891,Incorrect
2,new_learn,2,826,D,83.31991282552033,46.82518939950174,4.165995641276016,0.7355283551021267,D,822,Correct
2,new_learn,2,827,A,24.216461955384325,22.468429881130337,1.2108230977692163,0.35293327126128227,C,886,Incorrect
2,new_learn,2,828,C,43.81531290775126,54.38991234749304,2.1907656453875632,0.8543547453013846,D,6215,Incorrect
2,new_learn,2,829,D,60.34633888479484,50.62392735485633,3.017316944239742,0.7951987913694001,D,765,Correct
2,new_learn,2,830,B,44.66680415746238,40.09374511230552,2.233340207873119,0.6297910754986035,C,5005,Incorrect
2,new_learn,2,831,B,45.5515342153129,61.77934045201506,2.277576710765645,0.9704276105383663,C,2284,Incorrect
2,new_learn,2,832,B,38.74664095836327,64.69134369147193,1.9373320479181637,1.0161692504599031,C,1149,Incorrect
2,new_learn,2,833,C,29.8405538308642,80.25017514924923,1.49202769154321,1.2605668034908777,A,2192,Incorrect
2,new_learn,2,834,D,54.20561176388058,44.8375310041712,2.7102805881940295,0.7043062900390441,D,845,Correct
2,new_learn,2,835,D,59.54959697882288,71.5688777081477,2.9774798489411443,1.1242013021679156,C,519,Incorrect
2,new_learn,2,836,C,37.670015653117545,87.54036531614724,1.8835007826558774,1.3750808428488748,D,2749,Incorrect
2,new_learn,2,837,C,23.451473423931578,73.56687899879154,1.1725736711965788,1.1555858330506639,D,1174,Incorrect
2,new_learn,2,838,B,46.83735837932307,58.63507805984778,2.3418679189661535,0.9210376523774092,D,861,Incorrect
2,new_learn,2,839,C,55.367138314892614,89.60116214487356,2.7683569157446306,1.407451763737213,D,1339,Incorrect
2,new_learn,2,840,A,43.29306899371657,48.517630733726655,2.164653449685828,0.7621131614132902,C,1168,Incorrect
2,new_learn,2,841,B,14.385471875592078,32.56616233857201,0.7192735937796039,0.5115480817923521,D,4084,Incorrect
2,new_learn,2,842,B,44.1743593925899,64.68044400828757,2.208717969629495,1.015998038636811,C,901,Incorrect
2,new_learn,2,843,A,35.534457614422756,16.95880214001898,1.776722880721138,0.26638824108383247,B,644,Incorrect
2,new_learn,2,844,C,44.65963045006782,90.27632853914459,2.2329815225033913,1.4180572526581763,D,1357,Incorrect
2,new_learn,2,845,B,46.74593125633583,46.81733953462577,2.3372965628167917,0.7354050497129966,C,2125,Incorrect
2,new_learn,2,846,C,48.25249845108194,49.289868111788664,2.412624922554097,0.7742434377820253,B,678,Incorrect
2,new_learn,2,847,A,40.12883811993888,38.710184968140226,2.006441905996944,0.6080581635750568,A,868,Correct
2,new_learn,2,848,B,18.539798617901056,32.63306371447806,0.9269899308950528,0.5125989661476595,A,1217,Incorrect
2,new_learn,2,849,C,66.16812898660446,84.72608493800271,3.308406449330223,1.330874230043271,D,940,Incorrect
2,new_learn,2,850,B,4.329562742702009,43.01005342422341,0.21647813713510047,0.6756003393402239,C,982,Incorrect
2,new_learn,2,851,D,80.58095511898384,66.20481544327568,4.029047755949192,1.0399428091443148,D,866,Correct
2,new_learn,2,852,D,68.81969900595213,68.8878943608826,3.4409849502976066,1.0820885142270926,D,1917,Correct
2,new_learn,2,853,A,62.914615272770966,47.166796996526216,3.1457307636385483,0.7408943146882393,D,719,Incorrect
2,new_learn,2,854,C,70.77287077082087,74.6352525070906,3.5386435385410437,1.1723678048754749,C,997,Correct
2,new_learn,2,855,A,53.71286776732165,41.989228679379096,2.685643388366082,0.6595652617451961,C,712,Incorrect
2,new_learn,2,856,D,55.549431523930956,64.21394772934218,2.777471576196548,1.008670332222502,D,1013,Correct
2,new_learn,2,857,C,57.97006049600654,64.88987858033556,2.8985030248003274,1.0192878292015795,D,1612,Incorrect
2,new_learn,2,858,D,62.89780645342054,57.742255701487075,3.1448903226710274,0.9070132315674756,A,1390,Incorrect
2,new_learn,2,859,D,98.529047552724,43.93344626189077,4.9264523776362,0.69010496011619,D,908,Correct
2,new_learn,2,860,C,41.02999220426355,75.18112328804014,2.0514996102131775,1.1809423230516773,C,975,Correct
2,new_learn,2,861,B,40.95988564840847,54.139280907943736,2.047994282420424,0.8504178358551508,C,3742,Incorrect
2,new_learn,2,862,D,77.9734503357718,75.56243898333855,3.89867251678859,1.1869320159869168,D,836,Correct
2,new_learn,2,863,A,31.404094834533126,27.79831759509425,1.5702047417266563,0.43665495169451995,A,3292,Correct
2,new_learn,2,864,A,56.592007566716674,0.7074898592572723,2.829600378335834,0.011113224721659617,D,767,Incorrect
2,new_learn,2,865,A,64.06848001067613,32.46867375816621,3.2034240005338064,0.5100167347522934,C,470,Incorrect
2,new_learn,2,866,D,98.00245904276657,50.7557730807458,4.900122952138329,0.7972698191887078,D,773,Correct
2,new_learn,2,867,B,31.108703262499333,66.21937155817992,1.5554351631249665,1.0401714560625546,A,662,Incorrect
2,new_learn,2,868,B,35.73111301001974,51.683385328503505,1.786555650500987,0.8118407183033854,B,532,Correct
2,new_learn,2,869,D,86.64739764719491,26.13450427890333,4.332369882359745,0.41051983323906854,D,750,Correct
2,new_learn,2,870,A,42.654258386026726,34.01740228527537,2.132712919301336,0.5343441055681487,A,774,Correct
2,new_learn,2,871,D,63.566196138276894,54.247232933684245,3.1783098069138447,0.8521135423101835,B,1685,Incorrect
2,new_learn,2,872,B,33.705645388145214,58.11905018832115,1.685282269407261,0.9129319055262309,C,2358,Incorrect
2,new_learn,2,873,D,71.20164723179853,71.68555833950192,3.5600823615899264,1.126034117239309,D,847,Correct
2,new_learn,2,874,B,17.07546155212175,36.5356668289166,0.8537730776060876,0.5739009125186434,D,1022,Incorrect
2,new_learn,2,875,D,77.22932230564396,52.79941833975097,3.861466115282198,0.8293713238498793,A,594,Incorrect
2,new_learn,2,876,B,15.435990097101573,59.45080052176711,0.7717995048550788,0.9338509908460788,D,1165,Incorrect
2,new_learn,2,877,B,-0.7239386440494364,51.34795626017079,-0.03619693220247182,0.8065718108190129,A,864,Incorrect
2,new_learn,2,878,A,76.62084376588955,25.452376910138128,3.8310421882944774,0.3998050015864421,D,878,Incorrect
2,new_learn,2,879,C,28.691690740913028,58.7081195746448,1.4345845370456514,0.9221849858088761,D,6123,Incorrect
2,new_learn,2,880,B,27.29154595181581,46.39720079293781,1.3645772975907906,0.7288055257911198,A,613,Incorrect
2,new_learn,2,881,A,45.331347380622454,15.045075066634196,2.2665673690311228,0.23632748651022478,C,1096,Incorrect
2,new_learn,2,882,D,91.50442688467247,38.107868851919555,4.575221344233623,0.598597004145769,D,690,Correct
2,new_learn,2,883,A,24.036023307118963,25.8265808800872,1.2018011653559482,0.4056829838011228,A,4477,Correct
2,new_learn,2,884,C,73.3785900328651,66.4642791498715,3.668929501643255,1.0440184555168877,D,769,Incorrect
2,new_learn,2,885,D,71.62806839644213,71.14825685278412,3.5814034198221067,1.1175942052221313,C,595,Incorrect
2,new_learn,2,886,D,97.97634508813272,38.66086876355258,4.8988172544066355,0.6072835064448794,C,719,Incorrect
2,new_learn,2,887,A,71.879057162854,39.03098759731867,3.5939528581427,0.6130973194904533,D,530,Incorrect
2,new_learn,2,888,A,52.1506460540459,38.64275044229451,2.6075323027022947,0.6069989045200809,A,575,Correct
2,new_learn,2,889,B,2.7508686433818283,60.40034988622171,0.13754343216909143,0.948766477384036,B,958,Correct
2,new_learn,2,890,B,17.399075099867233,69.94469201424702,0.8699537549933616,1.0986886529477955,C,821,Incorrect
2,new_learn,2,891,A,48.75971471782035,12.206288903484639,2.4379857358910173,0.1917359377339098,D,668,Incorrect
2,new_learn,2,892,B,10.11072710521362,46.69300527907473,0.505536355260681,0.733452011793853,B,1271,Correct
2,new_learn,2,893,D,93.34398336606654,48.76629316715868,4.667199168303327,0.7660191417837592,D,812,Correct
2,new_learn,2,894,C,61.91130301770253,57.15740534231114,3.0955651508851263,0.8978264236082932,C,950,Correct
2,new_learn,2,895,D,56.98423966796315,61.71346488907248,2.8492119833981575,0.9693928396154088,C,1703,Incorrect
2,new_learn,2,896,B,44.426928547729986,62.909325600694366,2.221346427386499,0.9881773757471486,A,1220,Incorrect
2,new_learn,2,897,D,66.70843550211123,47.52729676287824,3.3354217751055613,0.7465570317762013,A,712,Incorrect
2,new_learn,2,898,C,66.25610565468176,69.2665981019644,3.3128052827340877,1.0880371786814405,C,643,Correct
