experiment,condition,subject,trial,cat,x,y,xt,yt,resp,rt,fb
2,relearn,11,0,A,36.26883743878278,70.75851206250192,1.8134418719391392,1.1114721083725039,A,5464,Correct
2,relearn,11,1,C,93.65924140353108,39.19359428496027,4.682962070176554,0.6156515393670504,B,1414,Incorrect
2,relearn,11,2,A,24.469048544201694,34.65356879274563,1.2234524272100848,0.5443369856997909,D,1244,Incorrect
2,relearn,11,3,C,74.06959211076453,73.44523615756819,3.7034796055382264,1.1536750717689184,A,2301,Incorrect
2,relearn,11,4,A,35.24636550500474,57.32821559639771,1.762318275250237,0.9005095048052744,A,909,Correct
2,relearn,11,5,A,40.36068469252465,62.221596320554426,2.0180342346262323,0.9773745494764174,C,2397,Incorrect
2,relearn,11,6,B,63.598152207518,81.32049462138757,3.1799076103759,1.2773793424441975,A,966,Incorrect
2,relearn,11,7,D,52.63222077605809,31.64978499404562,2.6316110388029044,0.49715366012495105,A,941,Incorrect
2,relearn,11,8,B,65.43304355288628,81.59256177994175,3.2716521776443135,1.2816529633771816,D,1069,Incorrect
2,relearn,11,9,A,26.613640432498798,58.39983239643527,1.33068202162494,0.9173424221375812,C,4965,Incorrect
2,relearn,11,10,B,31.089715887729323,57.37273490755753,1.5544857943864663,0.901208812509687,A,1127,Incorrect
2,relearn,11,11,C,78.41054285986745,27.005554922106857,3.9205271429933726,0.42420226474703293,B,1771,Incorrect
2,relearn,11,12,D,69.11096625145646,32.46828516627781,3.4555483125728235,0.510010630765184,D,1935,Correct
2,relearn,11,13,B,67.95123383436355,93.51921083575316,3.3975616917181775,1.4689963286555854,B,2254,Correct
2,relearn,11,14,B,30.4982138474895,68.2964470869731,1.524910692374475,1.0727980821735936,C,1347,Incorrect
2,relearn,11,15,B,48.15599183134256,91.86009847055358,2.407799591567128,1.4429350525656306,B,2321,Correct
2,relearn,11,16,B,69.15217818939587,58.20702402917791,3.4576089094697933,0.9143137953869493,D,958,Incorrect
2,relearn,11,17,D,59.84203323732167,34.561067692434385,2.9921016618660836,0.5428839818138571,D,875,Correct
2,relearn,11,18,B,63.74107485364997,87.92164170480956,3.1870537426824983,1.3810699183569184,A,3287,Incorrect
2,relearn,11,19,B,36.126828257495774,73.68863292740933,1.8063414128747888,1.1574983392891205,C,1964,Incorrect
2,relearn,11,20,B,44.451153691964876,58.8768696658138,2.2225576845982435,0.9248357060424219,B,863,Correct
2,relearn,11,21,B,66.6843444144837,76.10313785731567,3.334217220724185,1.1954252940383712,D,1402,Incorrect
2,relearn,11,22,B,47.03578483591428,51.80566557914641,2.351789241795714,0.8137614919888798,B,751,Correct
2,relearn,11,23,C,78.9588054804247,59.74883609034522,3.947940274021235,0.9385325226098462,A,1453,Incorrect
2,relearn,11,24,C,62.329058244710986,26.754137583780995,3.116452912235549,0.4202530104316847,C,806,Correct
2,relearn,11,25,B,26.972339812881263,85.64320125244146,1.348616990644063,1.3452802594229112,D,1197,Incorrect
2,relearn,11,26,B,61.9933946463845,65.10665275289365,3.0996697323192253,1.0226929099415618,D,3791,Incorrect
2,relearn,11,27,D,39.48954524707397,11.606321050246715,1.9744772623536986,0.18231166473329827,B,1005,Incorrect
2,relearn,11,28,D,41.11975805476902,31.570031364462622,2.055987902738451,0.49590089304097557,B,911,Incorrect
2,relearn,11,29,C,77.1089058840049,38.223553491318114,3.855445294200245,0.6004141742121074,A,1795,Incorrect
2,relearn,11,30,A,5.97860867554672,37.039089977871065,0.298930433777336,0.5818086648506554,C,2446,Incorrect
2,relearn,11,31,B,43.035586223187636,93.06227109437278,2.1517793111593817,1.4618187359823165,D,2087,Incorrect
2,relearn,11,32,C,66.008792967827,58.57215388310261,3.3004396483913503,0.9200492417204302,A,2310,Incorrect
2,relearn,11,33,D,40.590387009504006,39.491518636729886,2.0295193504752005,0.6203313241412751,B,1996,Incorrect
2,relearn,11,34,A,19.050693529600615,54.6318992287628,0.9525346764800307,0.8581558663436955,C,1535,Incorrect
2,relearn,11,35,D,57.78960100510298,25.389317925730644,2.889480050255149,0.39881447337565523,D,383,Correct
2,relearn,11,36,C,52.61132048150987,55.512811977963274,2.6305660240754936,0.8719932114504045,B,997,Incorrect
2,relearn,11,37,A,32.139995930317724,28.528286573047538,1.6069997965158862,0.4481212775869524,A,933,Correct
2,relearn,11,38,B,52.527477639194615,55.482742702040944,2.6263738819597306,0.8715208843687227,C,1149,Incorrect
2,relearn,11,39,B,64.49034078151564,84.26033117716466,3.2245170390757822,1.3235581870761175,B,1101,Correct
2,relearn,11,40,D,45.39688999284077,26.502554996190003,2.269844499642039,0.4163011603869499,B,1236,Incorrect
2,relearn,11,41,C,69.11098444497,42.50941911033191,3.4555492222484996,0.6677363939269415,A,4279,Incorrect
2,relearn,11,42,C,58.2551977666967,62.30847716589237,2.912759888334835,0.9787392706036743,C,1478,Correct
2,relearn,11,43,A,28.944230567397117,48.83848624459146,1.447211528369856,0.7671531479922736,B,1786,Incorrect
2,relearn,11,44,C,52.988065391709114,53.470977948437046,2.649403269585456,0.8399201575153583,C,1233,Correct
2,relearn,11,45,C,74.45708005929751,33.53002727548429,3.7228540029648753,0.526688436816634,D,1741,Incorrect
2,relearn,11,46,B,33.37739477858973,73.04228854028925,1.6688697389294866,1.1473455853977932,C,3004,Incorrect
2,relearn,11,47,A,23.303398276708283,36.94920185796451,1.1651699138354141,0.5803967055649382,A,3861,Correct
2,relearn,11,48,C,68.93092299730796,48.71761509674472,3.446546149865398,0.7652545084417421,C,2696,Correct
2,relearn,11,49,A,47.33393211006364,50.025051030961095,2.366696605503182,0.7857916640716094,B,934,Incorrect
2,relearn,11,50,B,46.02118440110521,95.7641057566933,2.3010592200552606,1.5042590556141182,C,1884,Incorrect
2,relearn,11,51,C,75.08358990647078,76.18641077945806,3.754179495323539,1.1967333420405981,C,1054,Correct
2,relearn,11,52,D,38.17908552131732,30.241052434965827,1.908954276065866,0.47502534083256187,B,1101,Incorrect
2,relearn,11,53,A,28.62722930005517,53.13882080608455,1.4313614650027586,0.8347026453240984,A,2445,Correct
2,relearn,11,54,B,48.061038067550996,95.22829359653426,2.40305190337755,1.4958425378838196,D,1654,Incorrect
2,relearn,11,55,C,68.18507814699855,54.50302764155336,3.4092539073499273,0.8561315561855273,C,934,Correct
2,relearn,11,56,D,39.32120421517213,3.7355520528675576,1.9660602107586067,0.058677914431954956,A,1315,Incorrect
2,relearn,11,57,B,52.55735594505653,97.1241666990911,2.6278677972528266,1.5256228429394754,B,1111,Correct
2,relearn,11,58,A,29.478401362112894,68.69578801638897,1.4739200681056448,1.0790709148242468,B,5181,Incorrect
2,relearn,11,59,C,63.46343960087924,71.0027059549653,3.1731719800439624,1.115307897065576,C,1124,Correct
2,relearn,11,60,C,68.08402863952729,33.29760013064713,3.4042014319763645,0.5230374797630578,D,1470,Incorrect
2,relearn,11,61,B,52.32305483129976,81.76552444857643,2.616152741564988,1.2843698546228215,C,1317,Incorrect
2,relearn,11,62,C,83.27932240501968,58.29523007044847,4.163966120250985,0.9156993326432387,C,1287,Correct
2,relearn,11,63,B,55.110540707035554,76.10284450220578,2.755527035351778,1.1954206860270804,A,1532,Incorrect
2,relearn,11,64,D,55.34679526255954,44.68025908202619,2.767339763127977,0.7018358684629106,B,1822,Incorrect
2,relearn,11,65,C,71.44186972895517,64.85299116070084,3.5720934864477583,1.0187084029689077,C,1174,Correct
2,relearn,11,66,C,73.06261816761626,27.77781612411437,3.6531309083808132,0.43633291534142904,D,3272,Incorrect
2,relearn,11,67,A,30.397881110440647,68.40280267691134,1.5198940555220324,1.0744687118736844,B,1309,Incorrect
2,relearn,11,68,D,54.86944166128762,39.533254914955904,2.743472083064381,0.6209869160665902,C,1437,Incorrect
2,relearn,11,69,A,15.969064302958541,26.43671141955924,0.798453215147927,0.4152668919038035,A,1510,Correct
2,relearn,11,70,D,44.44297759931691,46.399477249072376,2.2221488799658458,0.7288412842804626,C,1047,Incorrect
2,relearn,11,71,A,38.906460537526776,68.71231725443947,1.9453230268763388,1.079330555488391,C,2974,Incorrect
2,relearn,11,72,A,22.20238783844003,59.234674104207095,1.1101193919220014,0.930456085017813,A,1274,Correct
2,relearn,11,73,A,15.035132303192958,39.736649244159686,0.7517566151596479,0.6241818267186323,B,1632,Incorrect
2,relearn,11,74,A,30.94886588667379,62.87785796881969,1.5474432943336895,0.9876830833415318,B,1390,Incorrect
2,relearn,11,75,A,22.103241341277585,58.917161154858114,1.105162067063879,0.9254686032723408,A,804,Correct
2,relearn,11,76,C,85.22141307165796,39.8282343525605,4.261070653582898,0.6256204422372834,C,997,Correct
2,relearn,11,77,B,51.784897014890724,71.06426258101062,2.5892448507445365,1.116274826286395,D,1286,Incorrect
2,relearn,11,78,D,46.03189279649202,5.0185191566582255,2.3015946398246014,0.07883071457228562,D,6100,Correct
2,relearn,11,79,D,39.26570060682385,48.90532840872781,1.9632850303411926,0.7682031022512774,B,1151,Incorrect
2,relearn,11,80,A,14.214469290204608,56.2346635596072,0.7107234645102304,0.8833320295797781,A,724,Correct
2,relearn,11,81,B,49.23074341799963,82.36351079511611,2.4615371708999816,1.293763002189002,A,1469,Incorrect
2,relearn,11,82,D,69.73960011560702,27.16886471023846,3.486980005780351,0.4267675289003006,D,835,Correct
2,relearn,11,83,B,49.753981562802394,88.751211907135,2.4876990781401194,1.3941007766232314,C,1445,Incorrect
2,relearn,11,84,C,88.2585647653611,69.34056060553863,4.412928238268055,1.0891989789707899,D,1240,Incorrect
2,relearn,11,85,D,42.97856025685325,43.69257586229392,2.1489280128426627,0.6863213767269865,B,6052,Incorrect
2,relearn,11,86,D,62.45109801335538,42.02832606348901,3.122554900667769,0.6601794020186676,D,4677,Correct
2,relearn,11,87,D,40.59405681931139,7.5241573543179605,2.0297028409655695,0.11818918734389461,D,1279,Correct
2,relearn,11,88,C,70.10450741410406,71.61005740764486,3.5052253707052032,1.1248481513750022,D,1956,Incorrect
2,relearn,11,89,D,29.145801629238587,18.03405034187012,1.4572900814619294,0.28327820034243834,A,1607,Incorrect
2,relearn,11,90,D,62.28322982975864,22.019929515339,3.114161491487932,0.3458882439897703,D,791,Correct
2,relearn,11,91,C,76.051503325079,31.599475213176927,3.80257516625395,0.49636339593504697,D,910,Incorrect
2,relearn,11,92,C,70.1689490562468,33.31054303577039,3.50844745281234,0.5232407864413146,A,1437,Incorrect
2,relearn,11,93,C,96.54747595126298,43.41496794806818,4.827373797563149,0.6819607218074366,D,1179,Incorrect
2,relearn,11,94,B,40.95175422488268,62.940821705566606,2.047587711244134,0.9886721154055653,B,1039,Correct
2,relearn,11,95,D,62.69797744723375,26.164543584206978,3.134898872361687,0.41099168954337295,C,1454,Incorrect
2,relearn,11,96,A,34.75102905034027,62.52809177722048,1.7375514525170135,0.9821889688515211,A,1407,Correct
2,relearn,11,97,A,12.54713819133695,65.8474312477085,0.6273569095668475,1.0343290313278002,A,1005,Correct
2,relearn,11,98,B,48.911765377713394,92.35277025462189,2.4455882688856696,1.4506739228529306,C,3138,Incorrect
2,relearn,11,99,C,87.23939805579289,56.89455816438448,4.361969902789644,0.8936976297923374,D,871,Incorrect
2,relearn,11,100,D,24.789114030398473,30.891761513835032,1.2394557015199237,0.4852466551415602,A,5086,Incorrect
2,relearn,11,101,A,28.822873977101974,34.35986016968504,1.4411436988550985,0.5397234214372754,B,740,Incorrect
2,relearn,11,102,C,88.85240152551242,35.09874063259755,4.44262007627562,0.5513297286081101,C,1246,Correct
2,relearn,11,103,D,26.31508684076883,35.975492331371576,1.3157543420384417,0.5651017120875644,B,1991,Incorrect
2,relearn,11,104,A,18.331073859312657,70.00355129127101,0.9165536929656328,1.0996132123092663,A,1238,Correct
2,relearn,11,105,D,64.6145322967092,20.244477660586316,3.2307266148354596,0.31799951147130323,C,572,Incorrect
2,relearn,11,106,C,79.75792008136868,74.76306309859646,3.987896004068434,1.1743754489521039,B,720,Incorrect
2,relearn,11,107,A,9.798314404824392,41.80013517247994,0.48991572024121965,0.6565949878846165,A,731,Correct
2,relearn,11,108,D,24.862674777860907,19.826212425774877,1.2431337388930452,0.31142941652662515,A,806,Incorrect
2,relearn,11,109,D,61.68534662348118,39.06809179895516,3.084267331174059,0.6136801509268458,B,1199,Incorrect
2,relearn,11,110,D,52.898996894718664,45.3521644542501,2.644949844735933,0.7123901333693414,D,1438,Correct
2,relearn,11,111,B,64.12930794284146,74.81912266246401,3.2064653971420736,1.1752560305221524,A,2547,Incorrect
2,relearn,11,112,B,65.36066833525905,77.0484240236848,3.2680334167629526,1.2102738144173977,D,5366,Incorrect
2,relearn,11,113,C,84.7476224230853,66.12760102271847,4.237381121154265,1.0387299278624462,C,1032,Correct
2,relearn,11,114,D,47.909251434270615,-0.2565866300587949,2.395462571713531,-0.00403045336001036,B,1124,Incorrect
2,relearn,11,115,A,44.81383897438027,56.494501095040626,2.2406919487190136,0.8874135480420009,A,3340,Correct
2,relearn,11,116,B,29.907266319931527,70.40137920882654,1.4953633159965765,1.1058622786251933,A,719,Incorrect
2,relearn,11,117,A,14.665742798256744,38.87675774205371,0.7332871399128372,0.6106746825891303,A,461,Correct
2,relearn,11,118,B,66.3266397249885,86.08633945690497,3.3163319862494247,1.352241058061249,C,1988,Incorrect
2,relearn,11,119,B,59.49507021716242,98.52239459204577,2.9747535108581213,1.5475861553222285,B,958,Correct
2,relearn,11,120,D,48.61515040807869,14.282467187771463,2.430757520403935,0.2243484699612005,D,1493,Correct
2,relearn,11,121,B,39.80014363864497,76.47765523503551,1.9900071819322482,1.2013081992508028,A,2254,Incorrect
2,relearn,11,122,C,69.15886326686903,39.85171107435867,3.457943163343452,0.625989213720941,D,1716,Incorrect
2,relearn,11,123,D,51.79443001823311,43.38796511027036,2.589721500911655,0.681536562223178,D,11601,Correct
2,relearn,11,124,B,42.36410003710238,83.55805719246136,2.1182050018551193,1.312526893120362,A,2507,Incorrect
2,relearn,11,125,B,43.97276579396711,66.00181469752518,2.198638289698356,1.0367540808866997,B,1270,Correct
2,relearn,11,126,D,63.85280904354988,29.411757383098983,3.192640452177494,0.4619988046195456,D,1897,Correct
2,relearn,11,127,C,78.93296541419564,74.26840983645829,3.9466482707097814,1.1666054536800665,C,2038,Correct
2,relearn,11,128,A,13.384434112089494,60.526001859394064,0.6692217056044747,0.9507402139631727,A,1170,Correct
2,relearn,11,129,D,36.427345387348474,43.58638383094063,1.8213672693674239,0.68465331619914,B,3006,Incorrect
2,relearn,11,130,D,55.19393967442438,0.03209239520062468,2.759696983721219,0.0005041061649919142,D,2029,Correct
2,relearn,11,131,B,64.01060340004402,82.23596805255194,3.2005301700022013,1.2917595654737104,D,3598,Incorrect
2,relearn,11,132,D,49.280348123638454,2.2710236912962536,2.4640174061819224,0.03567315672352342,D,1220,Correct
2,relearn,11,133,C,57.99670967027124,32.84930242649943,2.899835483513562,0.5159956358931999,A,1279,Incorrect
2,relearn,11,134,D,42.96881339390673,34.42140704807263,2.1484406696953364,0.5406901975422446,B,684,Incorrect
2,relearn,11,135,A,44.33148447860832,38.76157628920285,2.216574223930416,0.6088654165586,C,3766,Incorrect
2,relearn,11,136,B,59.05196606069036,74.02351594562072,2.952598303034518,1.1627586694382448,D,2854,Incorrect
2,relearn,11,137,A,39.68802614526568,62.83946160402024,1.984401307263284,0.9870799546536393,C,3871,Incorrect
2,relearn,11,138,C,56.53108260097147,54.56606266665291,2.8265541300485735,0.8571217080443854,D,4510,Incorrect
2,relearn,11,139,C,99.37641137241532,48.5057110282678,4.968820568620766,0.7619259271177777,D,1564,Incorrect
2,relearn,11,140,C,53.10085909624916,41.24265726917932,2.655042954812458,0.6478381454568771,A,887,Incorrect
2,relearn,11,141,C,74.065577403623,39.22681450075369,3.70327887018115,0.6161733612964867,B,877,Incorrect
2,relearn,11,142,D,53.32222231817969,16.556391411356113,2.6661111159089845,0.2600671881393676,D,925,Correct
2,relearn,11,143,B,30.890168675723086,89.67427861734551,1.544508433786154,1.4086002746010846,B,2159,Correct
2,relearn,11,144,B,37.774328758196305,64.80192988118414,1.8887164379098151,1.017906334265845,B,1060,Correct
2,relearn,11,145,A,38.072864162279274,44.662252763604265,1.9036432081139636,0.701553025874548,B,1165,Incorrect
2,relearn,11,146,C,57.48334746521758,57.19652625584776,2.8741673732608786,0.8984409334811351,D,1913,Incorrect
2,relearn,11,147,A,18.10592895893393,57.941117545231215,0.9052964479466965,0.9101369461044052,A,980,Correct
2,relearn,11,148,A,38.33484929048751,44.886601832496574,1.9167424645243756,0.705077092807907,C,2623,Incorrect
2,relearn,11,149,C,79.08345458410601,35.197384588721874,3.9541727292053004,0.5528792242475162,D,765,Incorrect
2,relearn,11,150,D,68.39548356109044,12.272749727631647,3.419774178054522,0.19277990191836858,C,965,Incorrect
2,relearn,11,151,C,88.48250770436655,65.91490662239741,4.4241253852183275,1.0353889320349046,B,957,Incorrect
2,relearn,11,152,D,34.153568606128744,42.37691367165159,1.7076784303064372,0.6656550033633475,A,846,Incorrect
2,relearn,11,153,B,42.91822390431015,69.61071273709895,2.1459111952155077,1.0934425187300973,D,1140,Incorrect
2,relearn,11,154,D,51.12449459724853,41.29604062416982,2.5562247298624268,0.6486766892361878,B,4078,Incorrect
2,relearn,11,155,A,19.26326183314004,61.21340418000321,0.9631630916570019,0.961537904365604,A,909,Correct
2,relearn,11,156,C,92.99962246898653,53.786123364908136,4.649981123449327,0.8448704501413484,C,2327,Correct
2,relearn,11,157,C,79.29387264458593,34.990423829267165,3.9646936322292965,0.5496282922400948,C,2256,Correct
2,relearn,11,158,D,71.12035196797414,15.866659369281928,3.5560175983987072,0.24923290255773883,C,1771,Incorrect
2,relearn,11,159,D,39.12429163473649,16.31112622170906,1.9562145817368244,0.25621457154948507,A,1559,Incorrect
2,relearn,11,160,B,26.269751257481236,71.1745424942381,1.3134875628740619,1.1180070991125646,B,861,Correct
2,relearn,11,161,A,20.906181713286035,48.587155482211145,1.0453090856643017,0.7632052536086978,A,982,Correct
2,relearn,11,162,A,18.311727615527328,47.22099660118002,0.9155863807763664,0.7417456800872788,A,2326,Correct
2,relearn,11,163,C,75.7480216145485,70.50452516562939,3.7874010807274257,1.1074824915258898,C,999,Correct
2,relearn,11,164,B,41.30029424066101,69.37918983856392,2.0650147120330504,1.0898057655442202,D,1380,Incorrect
2,relearn,11,165,A,40.256809715185575,68.7190679318484,2.0128404857592788,1.0794365948811644,B,7711,Incorrect
2,relearn,11,166,D,52.27251798224345,39.185619808905244,2.6136258991121726,0.615526276590097,D,917,Correct
2,relearn,11,167,D,36.64676219120934,24.50733315038023,1.8323381095604672,0.38496028892156064,B,2278,Incorrect
2,relearn,11,168,C,88.14066766667375,49.079589450984905,4.407033383333687,0.7709403883020864,C,3221,Correct
2,relearn,11,169,B,37.15451504900298,84.17639534671697,1.8577257524501491,1.3222397261345804,B,2710,Correct
2,relearn,11,170,D,39.77572823148425,41.97829649861822,1.9887864115742127,0.6593935394513657,B,1124,Incorrect
2,relearn,11,171,D,37.46002836729694,43.53728991072966,1.8730014183648473,0.6838821507037867,B,3457,Incorrect
2,relearn,11,172,B,61.7893015627404,70.72430145557023,3.08946507813702,1.1109347294154466,C,1546,Incorrect
2,relearn,11,173,A,25.178952364931124,60.578133404386925,1.2589476182465562,0.9515590943570219,B,1440,Incorrect
2,relearn,11,174,D,63.58804160273533,18.701264397050995,3.179402080136766,0.2937587742130788,D,1244,Correct
2,relearn,11,175,C,65.66059231784989,60.257890559765265,3.2830296158924943,0.9465287315168814,C,1486,Correct
2,relearn,11,176,B,70.75984487253963,61.8158330243946,3.5379922436269817,0.971000834524857,C,1051,Incorrect
2,relearn,11,177,B,50.80240943817424,97.26915737293386,2.540120471908712,1.5279003511183924,B,1712,Correct
2,relearn,11,178,B,68.49085666509518,56.762832021291004,3.424542833254759,0.8916284803751964,C,1303,Incorrect
2,relearn,11,179,A,16.733871977069946,38.21282635662189,0.8366935988534974,0.6002456727743286,A,742,Correct
2,relearn,11,180,C,92.90825885160952,52.59721142430813,4.645412942580475,0.8261950650495777,C,946,Correct
2,relearn,11,181,D,64.91538596447062,17.948306870435832,3.2457692982235304,0.28193134504268214,D,1309,Correct
2,relearn,11,182,A,44.80104927547704,37.297913737014134,2.240052463773852,0.5858742589521473,C,1389,Incorrect
2,relearn,11,183,A,37.89438397616244,71.45206111197668,1.8947191988081218,1.1223663513661744,B,1350,Incorrect
2,relearn,11,184,C,89.1585914582631,63.54418732532671,4.457929572913155,0.9981497603979004,C,1863,Correct
2,relearn,11,185,C,78.73779803057539,66.40098642688702,3.9368899015287697,1.043024255749119,C,1011,Correct
2,relearn,11,186,C,69.09010217559054,58.317842206951326,3.4545051087795273,0.9160545232528352,C,1254,Correct
2,relearn,11,187,C,68.55154615583913,36.61412843355388,3.4275773077919562,0.5751333845222302,C,678,Correct
2,relearn,11,188,D,30.7080427046264,38.39692054983247,1.5354021352313199,0.6031374175991233,A,1286,Incorrect
2,relearn,11,189,B,55.10314187457488,91.298196829782,2.7551570937287444,1.4341087222321902,B,1410,Correct
2,relearn,11,190,C,91.12907824088947,51.576565648073284,4.556453912044474,0.8101627986868936,D,1945,Incorrect
2,relearn,11,191,C,50.66773425466033,59.095745914526276,2.5333867127330167,0.9282738061174239,C,684,Correct
2,relearn,11,192,B,42.69106992659771,96.62735804487028,2.1345534963298856,1.5178189908477755,B,724,Correct
2,relearn,11,193,C,59.04736573845027,67.16521451698435,2.952368286922513,1.0550287225167028,C,726,Correct
2,relearn,11,194,C,82.3871489915565,32.30205393433939,4.119357449577825,0.5073994766799095,D,1128,Incorrect
2,relearn,11,195,A,31.852313590591923,35.39668755256267,1.592615679529596,0.5560098678827207,A,3090,Correct
2,relearn,11,196,C,88.80516349340476,35.167868352521204,4.440258174670237,0.552415584293468,C,1199,Correct
2,relearn,11,197,C,94.42082816008671,54.44713467690318,4.721041408004336,0.8552535915498655,C,1606,Correct
2,relearn,11,198,D,56.698902515654254,39.50314226369048,2.8349451257827125,0.6205139076466123,B,1871,Incorrect
2,relearn,11,199,D,39.50796553057907,26.415646735166117,1.9753982765289535,0.4149360086151053,A,909,Incorrect
2,relearn,11,200,A,44.20704337497566,43.54447727040566,2.210352168748783,0.6839950494855708,B,574,Incorrect
2,relearn,11,201,B,53.62461868641433,49.221249630346776,2.6812309343207166,0.7731655811960337,C,901,Incorrect
2,relearn,11,202,A,8.882327552754845,49.23779284462053,0.44411637763774225,0.7734254413981796,A,734,Correct
2,relearn,11,203,D,58.60819728921075,24.912967607232932,2.9304098644605374,0.3913319800700173,D,1685,Correct
2,relearn,11,204,D,70.49841182104815,37.172487000873716,3.5249205910524073,0.5839040603880348,C,1933,Incorrect
2,relearn,11,205,B,56.721128511366146,76.00796089523074,2.8360564255683074,1.1939302578139857,C,982,Incorrect
2,relearn,11,206,D,71.06734457481997,17.07536649989912,3.5533672287409983,0.26821922976718165,D,839,Correct
2,relearn,11,207,B,67.70827170175322,93.73041034120695,3.385413585087661,1.4723138427294626,B,1144,Correct
2,relearn,11,208,C,82.87479341153133,54.17979190108928,4.143739670576566,0.8510541810474294,D,605,Incorrect
2,relearn,11,209,C,52.29939470725133,45.03895731788164,2.6149697353625663,0.7074702871760061,D,2372,Incorrect
2,relearn,11,210,A,37.465837267009256,42.170108755567426,1.8732918633504627,0.6624065193378661,A,838,Correct
2,relearn,11,211,C,74.6106258720061,34.96400107965879,3.730531293600305,0.5492132446598083,C,1333,Correct
2,relearn,11,212,C,90.10136163329989,60.94646908857783,4.505068081664994,0.9573448977545677,D,1607,Incorrect
2,relearn,11,213,C,63.482491250602024,51.074558157539514,3.1741245625301016,0.8022772834653538,C,1093,Correct
2,relearn,11,214,B,48.6340772431811,101.40043415984198,2.4317038621590554,1.5927942951368754,B,1030,Correct
2,relearn,11,215,A,44.94141029774643,53.76600966644063,2.247070514887321,0.8445545049046385,C,1823,Incorrect
2,relearn,11,216,A,23.237481416553553,30.576242703638975,1.1618740708276776,0.4802904972606536,A,638,Correct
2,relearn,11,217,D,65.15238548637373,31.213943271147954,3.257619274318687,0.4903074743510349,D,892,Correct
2,relearn,11,218,B,60.539112229387825,58.342887485133716,3.026955611469391,0.9164479335625597,C,640,Incorrect
2,relearn,11,219,C,63.95190275265,57.859372366975286,3.1975951376325,0.9088528958470292,D,1090,Incorrect
2,relearn,11,220,B,62.79634214435042,57.790181517093544,3.139817107217521,0.9077660485186086,D,2424,Incorrect
2,relearn,11,221,C,81.78177466739503,40.45706257900288,4.089088733369752,0.63549805292009,C,990,Correct
2,relearn,11,222,B,33.3878433999094,78.83782956731217,1.66939216999547,1.2383817309681606,B,2602,Correct
2,relearn,11,223,C,77.06015770319432,45.94808834613738,3.853007885159716,0.7217508839736,C,1785,Correct
2,relearn,11,224,C,64.98835834616699,37.91766453381998,3.2494179173083495,0.5956092817036555,D,1254,Incorrect
2,relearn,11,225,A,27.982457321928738,64.31403485743178,1.399122866096437,1.0102424971541277,A,1028,Correct
2,relearn,11,226,C,49.915462349062125,53.803410420213964,2.495773117453106,0.8451419945711035,C,1344,Correct
2,relearn,11,227,A,41.028291947230684,70.21668891932437,2.0514145973615343,1.1029611703417461,C,1171,Incorrect
2,relearn,11,228,D,37.601635060298904,43.250369438001925,1.8800817530149454,0.6793752144573568,C,1094,Incorrect
2,relearn,11,229,D,29.58680918846061,13.852472453944786,1.4793404594230304,0.2175941284768396,A,750,Incorrect
2,relearn,11,230,A,42.53498449026554,30.911637015959496,2.126749224513277,0.4855588587988633,D,1355,Incorrect
2,relearn,11,231,D,69.62356319803678,18.005062301080542,3.4811781599018388,0.28282285726250583,C,4101,Incorrect
2,relearn,11,232,B,59.52998358451785,98.47955602197659,2.9764991792258924,1.5469132486371309,B,1015,Correct
2,relearn,11,233,A,12.377781306565115,61.828216028967816,0.6188890653282557,0.9711953463058399,A,764,Correct
2,relearn,11,234,D,51.92335824225708,3.017858302981498,2.5961679121128545,0.047404407371108175,C,1725,Incorrect
2,relearn,11,235,B,38.97229021170633,52.67295701346339,1.9486145105853165,0.8273848739817379,C,758,Incorrect
2,relearn,11,236,A,18.636198758880784,44.91061273221881,0.9318099379440392,0.7054542551387742,A,670,Correct
2,relearn,11,237,B,50.154680442275044,87.40392866463833,2.5077340221137523,1.3729377009385706,B,6276,Correct
2,relearn,11,238,D,63.52602949379817,44.65159382191885,3.1763014746899088,0.7013855956100783,D,5854,Correct
2,relearn,11,239,C,58.161637852337606,41.04016656376273,2.90808189261688,0.6446574288940923,D,660,Incorrect
2,relearn,11,240,A,2.6243016711276788,39.78470709843495,0.13121508355638395,0.6249367177283247,A,2606,Correct
2,relearn,11,241,C,84.68909760531083,28.332583321639543,4.234454880265542,0.4450471781024175,D,2526,Incorrect
2,relearn,11,242,D,42.68439723081934,21.911605594587233,2.1342198615409673,0.3441866958215613,B,2111,Incorrect
2,relearn,11,243,B,29.170453882604672,62.16036874456489,1.4585226941302336,0.9764127889617882,A,756,Incorrect
2,relearn,11,244,A,25.548283470621538,23.635515887629346,1.277414173531077,0.37126581538190595,A,1350,Correct
2,relearn,11,245,B,65.04588544321004,57.85755361911673,3.252294272160502,0.9088243270224733,C,1844,Incorrect
2,relearn,11,246,B,57.872357129042,89.81435350698436,2.8936178564521002,1.4108005658222937,B,1332,Correct
2,relearn,11,247,D,43.001367129393614,44.55750395922016,2.1500683564696805,0.6999076355029209,D,1078,Correct
2,relearn,11,248,B,70.92442313023464,88.36203514375329,3.546221156511732,1.3879876023192923,C,956,Incorrect
2,relearn,11,249,B,66.4181015302061,85.11981446283336,3.3209050765103054,1.3370589189568174,B,732,Correct
2,relearn,11,250,C,100.16905037050424,55.41324849358136,5.008452518525212,0.8704292718949044,C,1736,Correct
2,relearn,11,251,C,57.272988789990336,46.66258751849974,2.863649439499517,0.7329742107280478,D,1140,Incorrect
2,relearn,11,252,A,33.478015047173415,29.797039562410873,1.6739007523586706,0.4680508029399721,A,463,Correct
2,relearn,11,253,D,61.34056014253356,6.642174476714583,3.067028007126678,0.10433503269954082,C,2077,Incorrect
2,relearn,11,254,D,50.725334246794795,18.971482677340695,2.53626671233974,0.2980033530341978,D,964,Correct
2,relearn,11,255,A,22.83235110241804,56.04697256560644,1.141617555120902,0.8803837863402894,A,886,Correct
2,relearn,11,256,A,29.83802329370569,75.22291095116985,1.4919011646852847,1.1815987221291722,A,5875,Correct
2,relearn,11,257,B,31.4184576288003,90.19995677874792,1.5709228814400151,1.4168576078511566,B,1854,Correct
2,relearn,11,258,C,61.22665726692689,29.593598981487627,3.061332863346345,0.4648551657676196,D,3734,Incorrect
2,relearn,11,259,D,35.840101341632966,39.31174266786235,1.7920050670816483,0.6175074098258437,C,1294,Incorrect
2,relearn,11,260,B,35.556247940099325,90.0146191316341,1.7778123970049662,1.4139463308981246,B,815,Correct
2,relearn,11,261,C,73.688885780618,47.69045858407803,3.6844442890308993,0.7491199716703391,C,723,Correct
2,relearn,11,262,A,4.980716779888397,66.76060678816417,0.24903583899441983,1.048673159174467,A,957,Correct
2,relearn,11,263,C,93.42732466605342,63.46243430372239,4.671366233302671,0.9968655869374956,C,1367,Correct
2,relearn,11,264,C,76.10401414988311,33.60423328030815,3.805200707494156,0.5278540620146686,C,3780,Correct
2,relearn,11,265,A,23.227460247270237,59.85112857865379,1.161373012363512,0.9401393292587844,A,836,Correct
2,relearn,11,266,D,62.44423693904123,7.37420514630637,3.1222118469520614,0.11583374356850068,D,1437,Correct
2,relearn,11,267,B,27.966095877855587,86.66272661543204,1.3983047938927795,1.3612949263755096,B,1638,Correct
2,relearn,11,268,C,69.40576585520539,38.55549040954818,3.4702882927602694,0.6056282271309413,C,5059,Correct
2,relearn,11,269,C,65.15183837255313,28.378637934337874,3.2575919186276563,0.4457706022670025,D,1375,Incorrect
2,relearn,11,270,C,89.55178271653088,29.645205650969636,4.477589135826544,0.46566580143622416,C,749,Correct
2,relearn,11,271,B,64.80453676851899,86.36816265743629,3.240226838425949,1.3566679265432506,B,920,Correct
2,relearn,11,272,D,31.658164467277366,5.778165879709313,1.5829082233638685,0.0907632173945899,A,2500,Incorrect
2,relearn,11,273,D,32.26798168254542,17.81868365882856,1.6133990841272707,0.2798952283960815,A,2230,Incorrect
2,relearn,11,274,B,63.62192459528713,52.08119602546053,3.1810962297643566,0.8180895141187836,D,2439,Incorrect
2,relearn,11,275,A,25.1139842002242,48.41393017134706,1.2556992100112099,0.7604842367885658,A,1227,Correct
2,relearn,11,276,C,58.21581424407499,46.756105913393924,2.9107907122037493,0.7344431942399232,B,1262,Incorrect
2,relearn,11,277,A,17.726177990861352,67.41620470321602,0.8863088995430676,1.0589712671426457,A,646,Correct
2,relearn,11,278,A,37.190638553703494,63.98641999276124,1.8595319276851745,1.0050963348938486,B,1101,Incorrect
2,relearn,11,279,A,38.169567947136734,61.527504605477496,1.9084783973568367,0.9664717823114013,A,1364,Correct
2,relearn,11,280,D,38.864406029935786,27.146630245750288,1.9432203014967895,0.4264182707488379,D,1671,Correct
2,relearn,11,281,A,16.258795580772443,65.30145852682382,0.8129397790386221,1.0257529118828412,A,820,Correct
2,relearn,11,282,A,34.07595553972111,48.82461381954757,1.7037977769860555,0.7669352404492467,A,676,Correct
2,relearn,11,283,B,47.81551180181937,60.245570455352485,2.390775590090968,0.9463352077693081,C,1961,Incorrect
2,relearn,11,284,B,51.48696607071209,63.813404963019856,2.5743483035356047,1.0023786211618682,D,635,Incorrect
2,relearn,11,285,D,27.23935823121318,28.710913931064102,1.3619679115606589,0.4509899814183992,A,2757,Incorrect
2,relearn,11,286,D,63.37018421912282,16.843752199838754,3.1685092109561412,0.26458104084950174,D,1477,Correct
2,relearn,11,287,C,97.54538573314258,52.041802070537756,4.877269286657128,0.8174707153218774,C,990,Correct
2,relearn,11,288,D,25.119264079512977,34.95002707606428,1.2559632039756488,0.5489937415246395,A,846,Incorrect
2,relearn,11,289,B,42.371275537914556,87.74421586434175,2.1185637768957277,1.3782829197720652,B,1198,Correct
2,relearn,11,290,A,10.893694868449046,68.87876586679616,0.5446847434224523,1.081945124177291,A,792,Correct
2,relearn,11,291,D,52.281884543945026,11.591518036085553,2.614094227197251,0.18207913953059982,D,1082,Correct
2,relearn,11,292,A,14.910437619633095,39.775446256833206,0.7455218809816547,0.6247912487686141,A,3839,Correct
2,relearn,11,293,A,40.93885039643887,63.52201426907133,2.0469425198219438,0.9978014668447025,C,2243,Incorrect
2,relearn,11,294,D,31.572275246665917,32.11258935560306,1.5786137623332959,0.5044233740365418,B,744,Incorrect
2,relearn,11,295,C,89.88507114222432,62.93678691752235,4.494253557111216,0.9886087371031721,C,988,Correct
2,relearn,11,296,D,34.66148221463262,6.419170819565252,1.7330741107316312,0.10083209944442084,D,2340,Correct
2,relearn,11,297,A,35.815932230385826,68.58230705443322,1.7907966115192915,1.077288360042234,C,4134,Incorrect
2,relearn,11,298,A,14.73219930942432,56.322565053450354,0.7366099654712159,0.8847127830162642,A,824,Correct
2,relearn,11,299,C,99.62762391826652,41.420840076761735,4.981381195913326,0.6506370344533617,C,706,Correct
2,relearn,11,300,D,25.326083738160353,16.662523772814566,1.2663041869080176,0.2617343113746976,A,1022,Incorrect
2,relearn,11,301,A,11.566724144459787,27.294638627153258,0.5783362072229893,0.4287431809672644,A,772,Incorrect
2,relearn,11,302,D,51.5073045389963,3.8526051287316037,2.575365226949815,0.06051657984802782,D,982,Correct
2,relearn,11,303,D,24.830816136581902,21.885920423019222,1.2415408068290952,0.34378323409004,D,1648,Incorrect
2,relearn,11,304,A,3.0574335551205216,35.56128932300817,0.1528716777560261,0.5585954264467181,A,605,Incorrect
2,relearn,11,305,A,27.420512348744275,57.830062007121164,1.3710256174372137,0.9083924897910702,A,5736,Incorrect
2,relearn,11,306,B,34.928312481935045,75.04628118224255,1.7464156240967523,1.1788242282068357,D,1931,Correct
2,relearn,11,307,D,41.89511894051179,15.787634547704535,2.0947559470255896,0.24799158356314494,D,1085,Incorrect
2,relearn,11,308,C,100.94553923428558,48.19957383584587,5.047276961714278,0.757117135344261,C,949,Incorrect
2,relearn,11,309,C,54.4266232745243,42.77925599871678,2.7213311637262154,0.6719749818580285,B,720,Incorrect
2,relearn,11,310,D,32.53253170330894,38.76704103246362,1.626626585165447,0.6089512565450088,D,5119,Correct
2,relearn,11,311,B,38.63798469217432,69.76076921772105,1.931899234608716,1.095799600415827,B,1318,Incorrect
2,relearn,11,312,B,40.79490973242572,53.662460148391695,2.039745486621286,0.8429279528787118,C,1843,Incorrect
2,relearn,11,313,B,56.91935372757354,58.36665354040556,2.845967686378677,0.9168212498857938,A,2407,Incorrect
2,relearn,11,314,D,63.661136959869324,20.093272298787813,3.183056847993466,0.31562438320225544,D,765,Incorrect
2,relearn,11,315,C,93.49744695440614,59.65723049391446,4.674872347720307,0.9370935852659732,C,646,Incorrect
2,relearn,11,316,A,5.493327207636472,66.40572383166707,0.2746663603818236,1.0430986707293894,A,828,Correct
2,relearn,11,317,D,62.92918517544244,20.624053374908335,3.146459258772122,0.323961872849279,B,845,Incorrect
2,relearn,11,318,A,45.67047577305945,56.87761185043648,2.2835237886529725,0.8934314377153151,C,929,Incorrect
2,relearn,11,319,C,68.55385710882588,46.76516414234191,3.4276928554412938,0.7345854805675107,C,948,Correct
2,relearn,11,320,D,31.889582857312558,10.815176656896401,1.594479142865628,0.16988439766290775,D,1875,Incorrect
2,relearn,11,321,D,46.229636244359206,30.554919514044393,2.31148181221796,0.47995555338174634,B,1353,Incorrect
2,relearn,11,322,C,75.6302695925792,66.79582124643214,3.78151347962896,1.0492263065914411,C,3764,Incorrect
2,relearn,11,323,C,81.90951801598175,64.30036572140891,4.095475900799087,1.0100277828675759,C,733,Incorrect
2,relearn,11,324,B,73.6197703496525,73.82915253263019,3.6809885174826253,1.1597056160863561,C,1307,Incorrect
2,relearn,11,325,B,56.93467818835397,60.40991030578816,2.846733909417699,0.948916652103412,B,824,Incorrect
2,relearn,11,326,D,27.88352858910279,23.668705360084434,1.3941764294551395,0.3717871543961131,A,709,Incorrect
2,relearn,11,327,B,36.94730255765733,80.66171417210306,1.8473651278828667,1.2670312433451936,B,3524,Incorrect
2,relearn,11,328,B,57.8207792851332,69.11825355674135,2.89103896425666,1.0857069880140762,D,2453,Correct
2,relearn,11,329,C,64.05973158260669,67.23381129969334,3.202986579130334,1.056106238259795,D,784,Incorrect
2,relearn,11,330,C,67.81804464807567,41.134444972548835,3.3909022324037834,0.6461383506762651,D,1639,Incorrect
2,relearn,11,331,D,37.69251619091012,33.09107601767419,1.884625809545506,0.519793406582533,A,797,Incorrect
2,relearn,11,332,D,38.569155664330715,1.287829502776269,1.9284577832165357,0.02022917852499061,B,2132,Incorrect
2,relearn,11,333,D,66.741879159181,24.04003198253563,3.3370939579590497,0.377619939341988,B,1368,Incorrect
2,relearn,11,334,D,58.90355148434494,46.21752966255764,2.945177574217247,0.725983258274797,D,789,Incorrect
2,relearn,11,335,D,29.105550750454466,15.467971768310536,1.4552775375227234,0.2429703323662935,A,1052,Incorrect
2,relearn,11,336,B,66.53930015715966,85.9808873769062,3.326965007857983,1.3505846206620995,B,2333,Incorrect
2,relearn,11,337,B,75.9947590559231,73.9547325367988,3.7997379527961552,1.1616782221790258,C,6312,Incorrect
2,relearn,11,338,A,15.71490269066377,67.5889205376514,0.7857451345331884,1.0616842811257496,A,764,Incorrect
2,relearn,11,339,D,59.29310914097091,40.305267096413196,2.9646554570485453,0.6331136550553305,A,1054,Incorrect
2,relearn,11,340,B,37.92913109146574,94.90379907422466,1.896456554573287,1.49074538984673,A,1775,Correct
2,relearn,11,341,B,31.104438040430153,71.9163150782838,1.5552219020215077,1.1296588356159263,A,947,Incorrect
2,relearn,11,342,D,54.82810912743815,18.162132371404493,2.7414054563719072,0.2852901081576486,D,981,Correct
2,relearn,11,343,C,90.7934772754908,36.36678826887782,4.5396738637745395,0.5712481743008101,A,1868,Incorrect
2,relearn,11,344,B,43.53084871068148,94.21138059838,2.176542435534074,1.479868905862113,A,1135,Correct
2,relearn,11,345,C,73.04549232806644,57.02630580453643,3.652274616403322,0.8957671168844831,B,822,Correct
2,relearn,11,346,A,26.257116511449045,36.88764785458926,1.3128558255724523,0.5794298175409245,C,1116,Incorrect
2,relearn,11,347,C,71.10816079216677,62.573634210271514,3.5554080396083383,0.9829043477170197,B,1031,Correct
2,relearn,11,348,B,60.577247539129445,98.33104566038202,3.028862376956472,1.5445804533322933,A,687,Incorrect
2,relearn,11,349,B,64.41808911611442,74.34275723069013,3.2209044558057207,1.1677732998177277,B,2189,Incorrect
2,relearn,11,350,D,24.560784307913988,31.054556026095526,1.2280392153956994,0.4878038253603717,D,1557,Incorrect
2,relearn,11,351,C,94.68412022534986,62.37993173288484,4.734206011267492,0.979861676317319,B,3470,Incorrect
2,relearn,11,352,A,43.79637283280759,44.83260149337335,2.1898186416403798,0.7042288574645026,A,1088,Incorrect
2,relearn,11,353,A,47.49662340542745,61.26331631120086,2.3748311702713725,0.962321922289082,C,7493,Incorrect
2,relearn,11,354,A,18.93153934690178,40.098882108349954,0.946576967345089,0.629871767243777,A,653,Incorrect
2,relearn,11,355,A,26.058464452986527,61.371739496443354,1.3029232226493264,0.964025029700265,D,414,Incorrect
2,relearn,11,356,D,54.14888630501684,32.10404955862557,2.7074443152508416,0.5042892312193037,C,788,Incorrect
2,relearn,11,357,C,71.11121617941862,33.85882076960704,3.5555608089709314,0.531853112945055,B,703,Incorrect
2,relearn,11,358,D,61.06303075140252,30.18261058491075,3.053151537570126,0.4741073383985857,A,1005,Correct
2,relearn,11,359,A,50.998188027157525,54.91852584735045,2.5499094013578762,0.8626581867400867,B,1104,Incorrect
2,relearn,11,360,C,74.60148739793114,61.332229989171445,3.7300743698965566,0.9634044158113031,D,1053,Incorrect
2,relearn,11,361,C,72.44868510840095,48.65962312271322,3.6224342554200475,0.7643435726438194,C,590,Incorrect
2,relearn,11,362,D,71.66324085842095,17.241135782299416,3.583162042921048,0.2708231275660798,A,764,Incorrect
2,relearn,11,363,B,61.9851504813804,77.2593693585774,3.09925752406902,1.2135873359894356,B,718,Incorrect
2,relearn,11,364,C,92.8410590585569,55.44603915569583,4.642052952927845,0.8709443464109302,A,3215,Incorrect
2,relearn,11,365,C,96.81282330425626,35.3954938403217,4.840641165212813,0.5559911170946872,B,811,Incorrect
2,relearn,11,366,B,52.03649409263241,97.7926965954992,2.6018247046316207,1.5361240859957794,A,2084,Incorrect
2,relearn,11,367,C,99.90973463334035,47.394296408822186,4.995486731667017,0.7444678671000643,D,982,Correct
2,relearn,11,368,B,73.17308156063005,76.46386093101728,3.658654078031503,1.2010915188299776,A,1165,Incorrect
2,relearn,11,369,A,19.764102022430976,52.716810991457415,0.9882051011215488,0.8280737306572212,C,1894,Incorrect
2,relearn,11,370,A,42.00950090818359,55.33560628194323,2.1004750454091794,0.8692096708864502,A,838,Correct
2,relearn,11,371,D,52.866635840494936,30.906278290702033,2.643331792024747,0.48547468413935607,B,1533,Incorrect
2,relearn,11,372,C,74.4908752355884,68.3626892043541,3.7245437617794206,1.0738386109202056,C,1798,Correct
2,relearn,11,373,D,40.70244803971851,14.176780607620072,2.0351224019859258,0.2226883490422673,B,1143,Incorrect
2,relearn,11,374,C,70.6899693853662,44.54506203123938,3.53449846926831,0.6997121981552163,A,2349,Incorrect
2,relearn,11,375,B,40.17255872475548,77.12963642900192,2.008627936237774,1.2115494958970205,C,1172,Incorrect
2,relearn,11,376,D,43.49829276930861,33.50501499784119,2.1749146384654305,0.5262955448781685,B,2231,Incorrect
2,relearn,11,377,B,65.03079775805075,80.34622044175998,3.251539887902538,1.262075479417696,C,1845,Incorrect
2,relearn,11,378,B,39.73228454645481,72.57749621174068,1.9866142273227405,1.1400446445737278,D,1077,Correct
2,relearn,11,379,B,43.28563404812681,64.34980615229894,2.1642817024063405,1.010804391339948,A,2363,Incorrect
2,relearn,11,380,B,45.626417516681634,86.77415557270793,2.2813208758340817,1.3630452483433853,B,1005,Correct
2,relearn,11,381,A,22.561464779902064,67.5233615384935,1.1280732389951031,1.0606544827750939,D,2289,Incorrect
2,relearn,11,382,B,44.75731976178321,74.24056034965258,2.2378659880891605,1.1661679949642911,C,1820,Incorrect
2,relearn,11,383,A,36.69704898344857,69.13890043731405,1.8348524491724283,1.0860313084557098,B,886,Incorrect
2,relearn,11,384,B,54.23216041991668,82.95960155720407,2.711608020995834,1.3031263739842434,A,596,Incorrect
2,relearn,11,385,A,18.401570913716604,62.87506849766655,0.9200785456858301,0.9876392664311211,C,1350,Incorrect
2,relearn,11,386,A,12.798242241996386,46.73077320107702,0.6399121120998192,0.7340452689253717,D,1774,Incorrect
2,relearn,11,387,B,62.79830099735927,86.63255213637882,3.1399150498679638,1.3608209467669121,B,678,Incorrect
2,relearn,11,388,B,69.95156070339854,77.14007431269022,3.497578035169927,1.2117134537905916,C,355,Incorrect
2,relearn,11,389,B,29.493131680419424,65.38864197021331,1.474656584020971,1.0271223862091767,A,847,Incorrect
2,relearn,11,390,A,4.787348971537096,57.230055672424626,0.2393674485768548,0.8989676123251202,A,1276,Correct
2,relearn,11,391,C,68.65649727061535,46.634086764408,3.432824863530767,0.7325265219296658,C,1528,Correct
2,relearn,11,392,B,67.02026358207526,92.53826554108154,3.351013179103763,1.4535876759990165,D,2107,Incorrect
2,relearn,11,393,D,41.53079484286788,24.750842069527636,2.0765397421433938,0.38878531807894606,B,1496,Incorrect
2,relearn,11,394,B,28.778167334426183,86.853645815447,1.4389083667213092,1.3642938781564906,C,1220,Incorrect
2,relearn,11,395,D,64.45231654315353,7.275133367850255,3.2226158271576764,0.11427752771162167,D,694,Correct
2,relearn,11,396,A,26.540448962134796,34.70463811466257,1.3270224481067399,0.5451391807325814,D,1049,Incorrect
2,relearn,11,397,D,53.05198422959913,30.188527736893654,2.6525992114799566,0.47420028480458404,D,1091,Correct
2,relearn,11,398,B,29.792975669032923,68.11451844859386,1.489648783451646,1.0699403538045444,A,1870,Incorrect
2,relearn,11,399,B,55.737498509203256,82.0218447400947,2.786874925460163,1.2883961243468207,B,1015,Incorrect
2,relearn,11,400,D,75.32448169311762,22.786421900537196,3.7662240846558808,0.35792827822162615,D,2252,Correct
2,relearn,11,401,A,37.771037762253,63.57721589567612,1.8885518881126502,0.9986685719677415,C,3054,Correct
2,relearn,11,402,A,3.9784106549358995,51.95939051265794,0.19892053274679497,0.8161761975978469,A,1005,Incorrect
2,relearn,11,403,A,39.34917128292815,64.90852300180046,1.9674585641464075,1.0195806950891022,C,1165,Incorrect
2,relearn,11,404,D,41.404085388623095,32.83383623926386,2.0702042694311547,0.5157526935922083,C,927,Correct
2,relearn,11,405,D,71.15397177161245,25.03642737093404,3.5576985885806223,0.393271281503304,C,3727,Incorrect
2,relearn,11,406,B,58.97941822496756,84.78179852711514,2.948970911248378,1.3317493770545743,A,1636,Incorrect
2,relearn,11,407,B,63.2507993476442,82.02609657077399,3.1625399673822097,1.2884629119469522,B,612,Incorrect
2,relearn,11,408,D,63.45784566240581,17.54186932675094,3.1728922831202904,0.27554703903576444,D,478,Correct
2,relearn,11,409,B,51.281048652377144,65.04953355366833,2.5640524326188574,1.0217956836582356,B,3504,Correct
2,relearn,11,410,B,28.135515599659154,62.635812480432435,1.4067757799829577,0.9838810417007722,B,2284,Incorrect
2,relearn,11,411,B,44.104880651999245,72.00421234262471,2.2052440325999623,1.1310395226155463,D,2934,Incorrect
2,relearn,11,412,C,79.95426532683626,65.49171245773422,3.997713266341813,1.0287414136411648,C,6126,Incorrect
2,relearn,11,413,D,37.60266746283458,12.389590943443482,1.880133373141729,0.1946152394445234,D,1408,Correct
2,relearn,11,414,B,70.1906573297384,77.18663793647663,3.50953286648692,1.212444873482651,C,3429,Incorrect
2,relearn,11,415,A,5.128678917402393,60.372293005399456,0.25643394587011964,0.948325760930667,B,1213,Incorrect
2,relearn,11,416,A,12.68746377268288,42.62538011724297,0.634373188634144,0.6695579051640147,A,1158,Correct
2,relearn,11,417,D,38.7691423103625,26.88148555747337,1.938457115518125,0.4222533877246923,C,1520,Incorrect
2,relearn,11,418,C,52.51072148062488,42.08075181818927,2.6255360740312437,0.6610029038477937,B,1134,Incorrect
2,relearn,11,419,C,79.4061422563947,45.01525104475214,3.970307112819735,0.707097909908468,C,2107,Correct
2,relearn,11,420,A,51.06635539062877,45.70774683531252,2.5533177695314384,0.7179756083497997,A,1919,Incorrect
2,relearn,11,421,C,68.2047766111839,45.950926700329866,3.410238830559195,0.721795468736997,B,878,Incorrect
2,relearn,11,422,D,52.96875153897861,35.591859192220085,2.6484375769489303,0.5590756168294048,D,726,Incorrect
2,relearn,11,423,D,59.56409529985248,8.91667686299202,2.978204764992624,0.14006283263604904,D,1308,Correct
2,relearn,11,424,B,27.158623170053474,88.85313190687339,1.3579311585026739,1.3957017322353913,A,1438,Incorrect
2,relearn,11,425,D,59.2020919964611,9.192521647104982,2.960104599823055,0.1443957923725508,D,1142,Incorrect
2,relearn,11,426,D,32.68733674920237,19.832311555503424,1.6343668374601186,0.3115252214323676,D,7023,Correct
2,relearn,11,427,D,36.57903510345748,38.15552567185641,1.8289517551728738,0.5993455957228042,D,1603,Correct
2,relearn,11,428,B,75.15792729810916,72.26887326223722,3.7578963649054575,1.1351968066192815,C,2413,Incorrect
2,relearn,11,429,C,84.10328574230087,61.469978701354,4.205164287115043,0.965568167522474,B,888,Incorrect
2,relearn,11,430,D,66.11519166718683,44.616352068383804,3.3057595833593414,0.7008320194400517,D,1052,Incorrect
2,relearn,11,431,D,57.32161420280126,39.09551111204136,2.8660807101400625,0.6141108524896363,A,1111,Correct
2,relearn,11,432,A,24.02813016158114,75.6553475829397,1.201406508079057,1.188391420856728,A,1989,Incorrect
2,relearn,11,433,A,24.021657021622588,45.09711230803726,1.2010828510811293,0.7083837836252185,B,1028,Incorrect
2,relearn,11,434,B,69.68943096386694,65.32233495913584,3.484471548193347,1.0260808381147646,D,982,Correct
2,relearn,11,435,C,72.28114155754645,64.72039695371654,3.614057077877322,1.0166256180360558,B,2830,Incorrect
2,relearn,11,436,B,72.83766232027656,72.3941542112712,3.641883116013828,1.137164715164881,D,1040,Correct
2,relearn,11,437,C,92.18644138316351,68.66959704434727,4.609322069158176,1.0786595079974637,D,692,Incorrect
2,relearn,11,438,D,50.226027948126465,11.53189467415214,2.5113013974063234,0.18114257795143812,D,1183,Incorrect
2,relearn,11,439,D,48.871882666512704,50.12169551005304,2.443594133325635,0.7873097519992356,B,410,Correct
2,relearn,11,440,A,23.55389625342433,65.0734642778749,1.1776948126712166,1.022171586595048,B,1696,Incorrect
2,relearn,11,441,D,38.396992582313175,3.8401347760426816,1.9198496291156588,0.06032069600605186,D,1092,Incorrect
2,relearn,11,442,A,33.00030258199043,52.94621375319216,1.6500151290995217,0.831677180812117,B,3311,Incorrect
2,relearn,11,443,C,53.71544269798197,45.24141489030003,2.6857721348990986,0.7106504832868723,A,2116,Incorrect
2,relearn,11,444,A,3.9629252009128706,60.69588539970136,0.19814626004564354,0.9534087383741489,D,880,Incorrect
2,relearn,11,445,B,62.671917098193475,66.10928042380868,3.133595854909674,1.0384421485677244,D,3029,Incorrect
2,relearn,11,446,A,33.67318287607622,58.25945102059089,1.683659143803811,0.9151373166423136,D,1691,Incorrect
2,relearn,11,447,C,86.7098669461684,61.42466337491326,4.33549334730842,0.9648563560392676,C,8606,Incorrect
2,relearn,11,448,B,48.45179893662128,53.9002042416856,2.422589946831064,0.8466624283633444,D,1751,Incorrect
2,relearn,11,449,B,34.219354474802344,86.89412908753383,1.7109677237401173,1.3649297879073972,B,3469,Correct
2,relearn,11,450,D,55.638065166203326,42.65377811294883,2.7819032583101664,0.6700039798374458,B,1526,Incorrect
2,relearn,11,451,D,31.42678773941695,7.434200466272422,1.5713393869708476,0.1167761478507763,D,830,Incorrect
2,relearn,11,452,C,84.1369455094355,57.0822678486022,4.206847275471776,0.8966461666170674,B,979,Correct
2,relearn,11,453,B,45.466777498511185,56.61244459709567,2.2733388749255594,0.8892662002399746,A,1110,Incorrect
2,relearn,11,454,D,39.84210459589606,42.21082766278113,1.992105229794803,0.6630461304366901,B,830,Incorrect
2,relearn,11,455,A,20.633945178075326,54.69999022713952,1.0316972589037663,0.8592254372450748,A,3959,Incorrect
2,relearn,11,456,A,51.126983630859,49.598121939369705,2.55634918154295,0.779085477582873,B,716,Incorrect
2,relearn,11,457,A,9.388937622640553,49.949772811967016,0.46944688113202765,0.7846091965727738,A,1024,Correct
2,relearn,11,458,B,52.9772871518082,95.73640590507279,2.64886435759041,1.5038239473623358,D,7935,Incorrect
2,relearn,11,459,B,41.632314990031276,72.3945577744989,2.0816157495015637,1.137171054321238,A,4332,Incorrect
2,relearn,11,460,C,89.90982070524723,68.67977789607534,4.495491035262361,1.0788194284424446,D,791,Correct
2,relearn,11,461,C,95.4331022758781,58.618288276229976,4.771655113793905,0.9207739190730639,A,2076,Incorrect
2,relearn,11,462,A,42.74596021777732,49.35671926609965,2.137298010888866,0.7752935332583625,A,3717,Correct
2,relearn,11,463,C,65.92897252186901,32.33373199645785,3.2964486260934507,0.5078970745160661,A,1685,Incorrect
2,relearn,11,464,C,88.96053779975595,68.24942225597648,4.448026889987798,1.0720594178556173,D,1009,Incorrect
2,relearn,11,465,C,64.53939398936942,49.215787232173724,3.2269696994684707,0.7730797780461766,B,996,Correct
2,relearn,11,466,D,55.88699856227356,32.23444898154809,2.794349928113678,0.5063375405647323,B,1044,Incorrect
2,relearn,11,467,C,51.30650930604084,40.61937918737098,2.565325465302042,0.638047716242114,C,1438,Correct
2,relearn,11,468,D,49.51815785709735,28.391247486521003,2.4759078928548677,0.4459686726495203,B,1109,Incorrect
2,relearn,11,469,C,95.67492183052137,45.534741498706026,4.783746091526068,0.7152580468772257,C,1702,Correct
2,relearn,11,470,A,32.94639163994739,52.60550850239487,1.6473195819973696,0.8263253952473956,A,1287,Incorrect
2,relearn,11,471,A,26.446069706603105,57.92022190883667,1.3223034853301554,0.9098087182154593,B,1947,Incorrect
2,relearn,11,472,A,10.808506126580196,33.43448571342884,0.5404253063290099,0.5251876734693046,A,423,Incorrect
2,relearn,11,473,D,62.75291710888444,32.27904419677816,3.1376458554442217,0.5070380405674926,C,1956,Incorrect
2,relearn,11,474,B,75.96047325270227,81.16495879274163,3.7980236626351136,1.274936191360977,A,2551,Incorrect
2,relearn,11,475,C,68.57822111486365,39.8924939196254,3.428911055743183,0.6266298291563532,D,638,Correct
2,relearn,11,476,C,84.77399480923748,47.58004159485311,4.238699740461874,0.7473855456594365,D,1220,Incorrect
2,relearn,11,477,C,55.01287430109926,65.44284706269944,2.750643715054963,1.0279738378108847,B,1606,Incorrect
2,relearn,11,478,B,38.46174989095276,65.20690184413266,1.9230874945476382,1.0242676189843893,C,934,Incorrect
2,relearn,11,479,A,39.41497560260742,59.49779197558371,1.9707487801303711,0.9345891308765376,D,1534,Incorrect
2,relearn,11,480,B,40.348585742444186,80.56675192389753,2.0174292871222095,1.2655395798385392,D,859,Incorrect
2,relearn,11,481,D,55.38912040322645,28.026840011290037,2.7694560201613223,0.4402445734140263,A,468,Incorrect
2,relearn,11,482,C,78.53664521288849,74.62685242284459,3.926832260644425,1.1722358566606912,B,9425,Incorrect
2,relearn,11,483,B,51.00585645725546,81.99451332594175,2.550292822862773,1.2879668034972451,D,918,Incorrect
2,relearn,11,484,D,27.283183469763692,30.449318351799086,1.3641591734881846,0.4782967742041444,A,373,Incorrect
2,relearn,11,485,C,64.4172828451172,74.00068131006583,3.22086414225586,1.1623999838217116,C,2122,Incorrect
2,relearn,11,486,C,90.77578740581347,59.406556334258454,4.538789370290674,0.9331560047738727,B,452,Incorrect
2,relearn,11,487,A,33.1320346463601,51.57593381409271,1.656601732318005,0.8101528738619352,D,559,Correct
2,relearn,11,488,D,41.61508325578622,14.851778207122925,2.0807541627893107,0.2332911865412118,D,1069,Correct
2,relearn,11,489,D,57.84709537531765,32.48369456626348,2.892354768765882,0.5102526810541401,D,958,Incorrect
2,relearn,11,490,C,58.72387832002566,44.24640713855527,2.936193916001283,0.6950209380711411,B,854,Incorrect
2,relearn,11,491,A,40.776935008040205,66.54400790554516,2.0388467504020102,1.0452708318824089,D,742,Incorrect
2,relearn,11,492,A,46.8643636511665,46.57780992973474,2.343218182558325,0.7316425274777818,A,916,Correct
2,relearn,11,493,C,83.81297547081596,49.100461744736165,4.190648773540798,0.7712682495256491,A,1137,Incorrect
2,relearn,11,494,C,79.41706865732088,27.845458957014372,3.9708534328660443,0.4373954464759623,B,955,Incorrect
2,relearn,11,495,B,57.87222542278248,98.03408805886627,2.893611271139124,1.5399158542355458,B,964,Correct
2,relearn,11,496,D,58.99617627009163,26.221344941582377,2.9498088135045815,0.41188392317859535,A,855,Incorrect
2,relearn,11,497,B,58.403039524765596,50.536532301487554,2.9201519762382797,0.7938259930812829,D,846,Incorrect
2,relearn,11,498,C,89.3592612136905,70.97742228787872,4.467963060684525,1.1149107421517013,B,2278,Incorrect
2,relearn,11,499,A,11.66344864401818,39.52135431559817,0.583172432200909,0.6207999818890123,D,1485,Incorrect
2,relearn,11,500,A,30.449902007070424,43.72722475110001,1.5224951003535212,0.6868656401996277,C,886,Incorrect
2,relearn,11,501,C,99.01607965043279,39.86214046952378,4.95080398252164,0.6261530382771016,D,1668,Incorrect
2,relearn,11,502,A,13.868932290951406,29.072601554851886,0.6934466145475703,0.45667135732732944,A,997,Incorrect
2,relearn,11,503,B,37.256094834125264,89.45021528093545,1.8628047417062632,1.4050806959430613,B,576,Incorrect
2,relearn,11,504,A,40.564880845623904,28.809718963624427,2.0282440422811954,0.4525420072405452,C,654,Correct
2,relearn,11,505,A,36.57053012827795,37.539869816297355,1.8285265064138974,0.5896748961579849,C,1053,Incorrect
2,relearn,11,506,B,46.96798444334214,88.96130053115408,2.348399222167107,1.397400841012337,B,717,Incorrect
2,relearn,11,507,C,75.45814785541715,34.17632342421799,3.7729073927708576,0.53684043298116,D,1575,Incorrect
2,relearn,11,508,C,65.18587217933376,39.36203879576723,3.2592936089666877,0.6182974595554939,C,620,Correct
2,relearn,11,509,C,80.12944881378795,69.34957859436754,4.006472440689397,1.0893406332080653,A,1103,Incorrect
2,relearn,11,510,A,30.60759279705643,53.0677894960082,1.5303796398528215,0.8335868881145447,B,1022,Incorrect
2,relearn,11,511,D,56.62649608005061,35.88037984429796,2.8313248040025303,0.5636076886342889,C,893,Incorrect
2,relearn,11,512,C,75.44886981569886,76.05578160600595,3.772443490784943,1.19468142378229,D,806,Incorrect
2,relearn,11,513,A,24.58145481346771,58.790598742154685,1.2290727406733857,0.9234805655424925,C,670,Incorrect
2,relearn,11,514,B,58.338545446513066,92.44914259145337,2.9169272723256534,1.4521877359799258,B,838,Incorrect
2,relearn,11,515,D,75.51201212525449,23.146908246279384,3.7756006062627243,0.3635907844991415,A,790,Incorrect
2,relearn,11,516,B,41.39578666278768,95.2985097272876,2.069789333139384,1.4969454902865107,D,190,Incorrect
2,relearn,11,517,C,94.35289010087898,36.759243711708805,4.717644505043949,0.5774128499811059,C,223,Correct
2,relearn,11,518,D,71.49222884233708,32.20173908558387,3.5746114421168547,0.505823734720428,C,2108,Correct
2,relearn,11,519,D,49.00232959340883,1.4107135368211345,2.4501164796704415,0.022159436417984752,A,1509,Correct
2,relearn,11,520,A,12.172289500375829,34.51925778572406,0.6086144750187914,0.5422272333350148,B,1688,Incorrect
2,relearn,11,521,C,52.57969702539458,36.316340993088176,2.628984851269729,0.5704557503457384,C,2060,Correct
2,relearn,11,522,B,49.53383001351948,87.75842428421042,2.476691500675974,1.3785061051094578,B,1487,Incorrect
2,relearn,11,523,B,23.62438254335316,74.98654459175484,1.181219127167658,1.1778858880377021,D,1255,Incorrect
2,relearn,11,524,B,64.16782259202486,85.16905606665534,3.2083911296012433,1.3378324042609082,A,811,Incorrect
2,relearn,11,525,D,51.34820857077969,40.431955935097946,2.567410428538984,0.6351036786798497,C,886,Incorrect
2,relearn,11,526,D,38.36780873465314,40.980490725481985,1.9183904367326567,0.6437200430183943,D,1334,Incorrect
2,relearn,11,527,B,42.9797916015181,64.7009733193211,2.1489895800759053,1.016320512300442,A,3030,Incorrect
2,relearn,11,528,A,39.36524290749957,29.77412940768075,1.9682621453749787,0.46769093107100834,C,933,Correct
2,relearn,11,529,B,54.726956464845046,86.29335148402339,2.7363478232422525,1.3554927953792488,B,2421,Correct
2,relearn,11,530,D,68.08451548703779,41.31004512695331,3.4042257743518896,0.6488966714514969,C,830,Incorrect
2,relearn,11,531,D,63.681827781781806,24.470060331257443,3.1840913890890903,0.384374808847887,D,958,Incorrect
2,relearn,11,532,D,53.40430904197217,37.61235682738789,2.6702154520986086,0.5908135194655985,A,836,Incorrect
2,relearn,11,533,C,95.73150858779594,61.237111098817,4.786575429389797,0.9619102917755273,C,2544,Correct
2,relearn,11,534,D,30.015109701795772,23.247711189368854,1.5007554850897886,0.36517419342649216,B,2661,Incorrect
2,relearn,11,535,B,61.117993365577206,86.34209929660017,3.0558996682788604,1.3562585242285976,A,2302,Incorrect
2,relearn,11,536,C,77.96396498829291,43.67704795364493,3.8981982494146457,0.6860774649083,C,1268,Incorrect
2,relearn,11,537,D,75.19032229229953,30.540069760994346,3.7595161146149763,0.4797222940062982,D,1040,Incorrect
2,relearn,11,538,D,46.60486384214934,8.922362005943533,2.330243192107467,0.14015213465270446,B,245,Correct
2,relearn,11,539,D,62.576033592485096,26.543617887465192,3.128801679624255,0.41694617477477636,C,4546,Incorrect
2,relearn,11,540,A,27.186171504361262,46.473203754936975,1.359308575218063,0.7299993775264579,D,1561,Incorrect
2,relearn,11,541,B,34.84929850681512,65.39362007984904,1.7424649253407558,1.0272005821724788,B,693,Incorrect
2,relearn,11,542,C,98.69143195315854,56.78455758161373,4.934571597657927,0.8919697446787216,A,372,Correct
2,relearn,11,543,A,20.444250011159195,66.2736885803026,1.0222125005579599,1.0410246658508822,C,1591,Incorrect
2,relearn,11,544,C,68.40421900063026,63.98331016078496,3.4202109500315134,1.0050474857673959,A,445,Incorrect
2,relearn,11,545,C,87.32946353253251,41.495120001750166,4.366473176626625,0.651803820786626,A,517,Incorrect
2,relearn,11,546,D,53.14366283494418,20.574761182019166,2.657183141747209,0.3231875928939793,D,1046,Correct
2,relearn,11,547,B,49.51967531672313,50.45507336693043,2.4759837658361565,0.7925464391294134,D,1856,Incorrect
2,relearn,11,548,B,60.72730065906142,68.00080025123046,3.036365032953071,1.0681540725374628,A,1092,Incorrect
2,relearn,11,549,C,92.99242896997283,58.096098984859495,4.649621448498642,0.9125713888653002,A,702,Incorrect
2,relearn,11,550,D,43.94501490262958,17.161668300713874,2.1972507451314787,0.26957485528433767,B,627,Correct
2,relearn,11,551,D,56.97769006620204,36.23244115924125,2.8488845033101016,0.5691378548374838,C,1219,Incorrect
2,relearn,11,552,B,35.33730241753332,89.22726200672446,1.7668651208766661,1.401578554101286,D,439,Incorrect
2,relearn,11,553,D,41.3953292781192,12.256269743610586,2.06976646390596,0.19252103493470937,A,388,Incorrect
2,relearn,11,554,A,15.279190081489745,50.497443439377925,0.7639595040744872,0.793211986671079,C,453,Incorrect
2,relearn,11,555,C,63.795518405198926,40.11684905607721,3.189775920259946,0.6301539913987139,B,464,Incorrect
2,relearn,11,556,D,39.93251045627046,29.964769933014885,1.9966255228135228,0.47068550544033944,A,531,Incorrect
2,relearn,11,557,B,46.575849589082544,49.9227800736861,2.328792479454127,0.7841851956313557,D,360,Incorrect
2,relearn,11,558,A,21.69070587599003,31.131692991726585,1.0845352937995016,0.48901548998310546,B,1037,Incorrect
2,relearn,11,559,A,35.11583568271689,59.2478675782432,1.7557917841358446,0.9306633276233487,C,1990,Incorrect
2,relearn,11,560,D,61.52535429860204,36.270078828327215,3.0762677149301023,0.5697290659609773,D,517,Incorrect
2,relearn,11,561,B,37.02620278590509,52.19961020011718,1.8513101392952547,0.8199495596246947,C,1101,Incorrect
2,relearn,11,562,B,70.43824038938082,89.88998556063495,3.5219120194690414,1.4119885913429167,A,1383,Incorrect
2,relearn,11,563,B,70.52390242638056,76.27277084092347,3.526195121319028,1.1980898827139146,C,1606,Incorrect
2,relearn,11,564,D,41.47507616610782,8.481157938783443,2.073753808305391,0.1332217173720841,D,719,Incorrect
2,relearn,11,565,B,30.843066131525813,76.57867617553326,1.5421533065762907,1.202895032473435,A,811,Incorrect
2,relearn,11,566,D,59.54174112014334,10.041464493539108,2.977087056007167,0.15773095542092605,B,206,Incorrect
2,relearn,11,567,C,69.02464022537116,48.95003487359961,3.451232011268558,0.7689053497593237,C,237,Incorrect
2,relearn,11,568,B,25.468224300103586,66.9884492401436,1.2734112150051793,1.0522521000410394,C,270,Incorrect
2,relearn,11,569,D,50.762331227389026,9.568509396423627,2.5381165613694514,0.15030179412804684,C,214,Incorrect
2,relearn,11,570,D,56.329934757988084,17.109589466193896,2.8164967378994046,0.26875680286466025,D,156,Correct
2,relearn,11,571,D,67.6942411475396,10.929064809593998,3.3847120573769804,0.17167334858213618,D,1087,Correct
2,relearn,11,572,C,86.73856461298767,71.93341336337014,4.3369282306493835,1.1299274148500074,C,1981,Correct
2,relearn,11,573,C,76.98107106519704,68.23570794749537,3.849053553259852,1.0718439940017506,C,1056,Incorrect
2,relearn,11,574,B,45.86115348912367,62.62877714729973,2.2930576744561835,0.9837705309463459,A,1628,Incorrect
2,relearn,11,575,B,38.79402994698677,95.85878656501659,1.9397014973493385,1.5057462982734404,B,878,Correct
2,relearn,11,576,A,29.41729519309544,28.813673932274313,1.4708647596547721,0.45260413174282355,A,1117,Incorrect
2,relearn,11,577,A,3.1847273450163414,44.43479561452276,0.15923636725081708,0.6979801373317434,D,895,Incorrect
2,relearn,11,578,B,40.870059771463914,78.0221393595648,2.0435029885731955,1.2255688991468392,D,571,Correct
2,relearn,11,579,A,11.638092477162763,58.643756715778736,0.5819046238581381,0.9211739763859879,D,879,Incorrect
2,relearn,11,580,B,64.29505164432967,68.21421835761566,3.2147525822164833,1.071506436313277,B,692,Correct
2,relearn,11,581,C,70.86685254451082,49.51766044607775,3.5433426272255413,0.7778215914017588,B,1758,Incorrect
2,relearn,11,582,D,26.898195964362962,35.26609338151031,1.3449097982181482,0.5539584994408221,D,308,Incorrect
2,relearn,11,583,B,61.265653793720276,88.41124210620268,3.0632826896860137,1.3887605434779746,D,238,Incorrect
2,relearn,11,584,A,44.300680445512754,65.73216613150306,2.2150340222756375,1.0325184511163692,C,1668,Incorrect
2,relearn,11,585,D,46.79747011128742,30.30379998085092,2.339873505564371,0.47601097697847883,D,432,Incorrect
2,relearn,11,586,B,47.186971734712095,53.003379001331886,2.3593485867356048,0.8325751304300988,B,619,Incorrect
2,relearn,11,587,B,69.7146626123778,77.38459509707944,3.4857331306188892,1.2155543772900277,D,308,Incorrect
2,relearn,11,588,C,59.57030285754298,47.583576841327414,2.978515142877149,0.747441077181198,A,879,Incorrect
2,relearn,11,589,C,72.4798194990244,34.955381520977696,3.6239909749512202,0.5490778489486596,D,1094,Incorrect
2,relearn,11,590,A,29.488068866757633,70.88568829624184,1.4744034433378816,1.1134697879806468,C,583,Incorrect
2,relearn,11,591,B,58.087170105925665,99.13896535591431,2.9043585052962833,1.5572712262331672,C,205,Incorrect
2,relearn,11,592,B,41.06020101032288,52.252987430594416,2.053010050516144,0.820788007200376,C,667,Incorrect
2,relearn,11,593,B,59.96263857769104,91.40197550337524,2.9981319288845523,1.4357388738249894,D,240,Incorrect
2,relearn,11,594,B,75.49570165819355,79.21844173929262,3.7747850829096774,1.2443603729849637,C,2845,Incorrect
2,relearn,11,595,B,30.789409309835705,63.97225709944847,1.5394704654917855,1.0048738646859239,D,6318,Correct
2,relearn,11,596,C,56.952183371543825,54.052618655230845,2.847609168577191,0.849056548372819,D,939,Incorrect
2,relearn,11,597,D,44.28003662421598,18.800180240511338,2.2140018312107994,0.295312540648772,A,1293,Incorrect
2,relearn,11,598,C,63.54157312967738,64.69720720824054,3.1770786564838693,1.0162613543659256,A,1911,Incorrect
2,relearn,11,599,B,52.42214513156764,94.39002440337637,2.621107256578382,1.4826750361890424,D,301,Incorrect
2,relearn,11,600,A,10.719079835924987,28.308938565908356,0.5359539917962494,0.44467576714791235,B,238,Incorrect
2,relearn,11,601,B,49.89269495429824,71.36601312160457,2.4946347477149122,1.1210147126941286,C,2992,Incorrect
2,relearn,11,602,A,41.33895653757219,49.41756612448443,2.0669478268786095,0.7762493134748406,D,309,Incorrect
2,relearn,11,603,A,12.138708149185266,50.563073294269955,0.6069354074592632,0.7942428980210038,B,302,Incorrect
2,relearn,11,604,C,69.21644404186021,44.564403772679285,3.4608222020930106,0.7000160175192925,B,238,Incorrect
2,relearn,11,605,B,42.51586554914428,68.07256845353855,2.125793277457214,1.0692814048231252,A,598,Incorrect
2,relearn,11,606,D,72.23184168856372,33.831318763798954,3.6115920844281857,0.5314211124480266,D,188,Correct
2,relearn,11,607,D,50.776714318385025,28.39487424443216,2.538835715919251,0.4460256416295705,C,806,Incorrect
2,relearn,11,608,B,42.362622965255646,60.27957890142063,2.118131148262782,0.9468694111909467,D,309,Incorrect
2,relearn,11,609,A,12.346157751708246,58.22132538458938,0.6173078875854123,0.9145384405524346,A,790,Correct
2,relearn,11,610,A,16.347709086297932,34.55768754689302,0.8173854543148965,0.542830886611853,A,2582,Correct
2,relearn,11,611,D,39.16515297076154,9.735501131273391,1.958257648538077,0.152924894165118,D,1028,Correct
2,relearn,11,612,D,44.906304237759784,23.518010714067533,2.2453152118879895,0.369420048431803,C,1487,Incorrect
2,relearn,11,613,B,41.1058475105086,84.65734309112489,2.05529237552543,1.3297944356375428,B,862,Correct
2,relearn,11,614,D,37.383470265922185,30.47791824649364,1.8691735132961094,0.4787460202994736,D,1140,Correct
2,relearn,11,615,A,42.8684472143061,48.79448840075418,2.1434223607153053,0.7664620314774085,D,1736,Incorrect
2,relearn,11,616,B,34.80870771421554,78.2441635900826,1.7404353857107768,1.2290564476044072,B,715,Correct
2,relearn,11,617,A,9.149858664631337,35.40874733223617,0.45749293323156687,0.5561993024588516,A,1239,Correct
2,relearn,11,618,A,21.227061931769782,68.28389088981265,1.0613530965884892,1.072600849889812,A,1179,Correct
2,relearn,11,619,D,38.199954522657194,36.228804252584254,1.9099977261328598,0.5690807264413067,D,1871,Correct
2,relearn,11,620,B,25.292633347512336,81.25220034970535,1.2646316673756168,1.2763065785332015,B,1437,Correct
2,relearn,11,621,B,45.388185056939825,76.21331419520854,2.2694092528469914,1.1971559399069893,D,838,Incorrect
2,relearn,11,622,A,20.2601920965967,62.458159612742314,1.013009604829835,0.9810904769806499,A,581,Correct
2,relearn,11,623,D,63.40995817556531,4.928940597490936,3.170497908778265,0.07742361785529005,C,4085,Incorrect
2,relearn,11,624,D,50.83528021609718,12.995560071510397,2.541764010804859,0.2041337802497096,D,758,Correct
2,relearn,11,625,A,19.260002981441055,74.09581461302949,0.9630001490720528,1.1638943342502233,D,5877,Incorrect
2,relearn,11,626,A,25.907941113219746,24.599948743098608,1.2953970556609873,0.38641509125002027,A,2756,Correct
2,relearn,11,627,C,87.37867181294153,41.93026803990256,4.368933590647077,0.6586391101860438,D,2341,Incorrect
2,relearn,11,628,B,55.619338343103465,95.9255536428156,2.780966917155173,1.5067950730790156,B,767,Correct
2,relearn,11,629,D,59.744134340835714,20.57390566826992,2.987206717041786,0.3231741545154309,C,1101,Incorrect
2,relearn,11,630,A,27.479184646192685,33.19648587859126,1.3739592323096343,0.5214491808058981,D,2924,Incorrect
2,relearn,11,631,B,26.740777236113814,86.97095734882816,1.3370388618056908,1.3661366034137488,C,999,Incorrect
2,relearn,11,632,C,65.4071280910588,56.16882039902676,3.2703564045529396,0.8822977676319348,C,965,Correct
2,relearn,11,633,B,48.272040080496,62.54139606820033,2.4136020040248,0.9823979521655386,D,1982,Incorrect
2,relearn,11,634,B,43.23516824868133,83.53372028015536,2.1617584124340667,1.3121446097958038,B,1054,Correct
2,relearn,11,635,C,67.39128569033625,63.26130461244692,3.3695642845168123,0.9937062491348467,C,887,Correct
2,relearn,11,636,A,11.364690294441134,52.79945021584065,0.5682345147220567,0.8293718245583251,A,788,Correct
2,relearn,11,637,A,36.93538594590364,63.03850657802682,1.8467692972951821,0.9902065457940046,C,2341,Incorrect
2,relearn,11,638,A,22.13150662439668,52.8519323971972,1.1065753312198339,0.8301962127352955,A,877,Correct
2,relearn,11,639,C,88.28848833944696,72.26495345626893,4.4144244169723486,1.1351352344511139,C,752,Correct
2,relearn,11,640,B,41.62444623715094,82.23845974229604,2.0812223118575472,1.2917987048446862,B,742,Correct
2,relearn,11,641,D,34.930052580194285,22.07783085469122,1.7465026290097143,0.34679775610147995,D,3381,Correct
2,relearn,11,642,C,54.92782860811339,64.79194810813559,2.7463914304056694,1.0177495409414492,C,1999,Correct
2,relearn,11,643,D,63.89522843307122,44.673693724887485,3.1947614216535607,0.7017327400741349,C,749,Incorrect
2,relearn,11,644,A,12.54789783251691,62.60401240366853,0.6273948916258455,0.9833815272630466,A,709,Correct
2,relearn,11,645,A,19.88698413248492,61.93996946615324,0.9943492066242459,0.9729507651922155,B,663,Incorrect
2,relearn,11,646,A,41.415198975218686,41.101637783427364,2.0707599487609345,0.6456230165546204,C,3631,Incorrect
2,relearn,11,647,C,77.24125430690773,23.69295388952853,3.862062715345387,0.3721680494059227,C,782,Correct
2,relearn,11,648,C,75.21625263827049,47.243797213448445,3.760812631913524,0.742103831267278,C,989,Correct
2,relearn,11,649,B,38.06766261019597,64.58608428252901,1.9033831305097981,1.014515839530622,B,1908,Correct
2,relearn,11,650,D,53.31631715317626,32.54179484584271,2.665815857658813,0.5111653181116282,C,831,Incorrect
2,relearn,11,651,D,67.12455546572278,12.890378109025916,3.3562277732861387,0.20248158584655254,D,742,Correct
2,relearn,11,652,B,42.09611824563899,87.6661239517665,2.1048059122819494,1.3770562548778091,B,887,Correct
2,relearn,11,653,D,71.44059180115528,19.976672137444133,3.572029590057764,0.313792832150832,C,1333,Incorrect
2,relearn,11,654,A,30.035339595603567,32.658997293892725,1.5017669797801785,0.5130063298605115,A,1533,Correct
2,relearn,11,655,C,81.23329320349764,73.26601095267574,4.061664660174881,1.1508598088337774,C,983,Correct
2,relearn,11,656,D,44.918712028247185,6.2328875738865115,2.2459356014123593,0.09790596906386485,D,1608,Correct
2,relearn,11,657,B,28.087794538729046,63.941287702448676,1.4043897269364525,1.0043873985354208,B,4098,Correct
2,relearn,11,658,C,76.30574807680593,41.28728003941239,3.815287403840296,0.6485390782926123,C,814,Correct
2,relearn,11,659,A,17.282754535106896,36.56005397761739,0.8641377267553448,0.5742839849546455,A,661,Correct
2,relearn,11,660,A,0.4505996636691023,47.086165139857485,0.022529983183455116,0.7396277524454604,A,1076,Correct
2,relearn,11,661,A,25.716023943777206,56.528011784863985,1.2858011971888603,0.8879399327268298,B,2176,Incorrect
2,relearn,11,662,B,65.29651065912331,60.70772818617675,3.264825532956166,0.9535947644290944,C,1269,Incorrect
2,relearn,11,663,A,41.09485328187203,66.10915107684554,2.054742664093601,1.0384401167903785,D,2479,Incorrect
2,relearn,11,664,A,10.210373320371424,63.7043859921776,0.5105186660185712,1.0006661551723683,A,863,Correct
2,relearn,11,665,B,69.41142133649467,76.74375267784518,3.4705710668247334,1.2054880481081522,B,3539,Correct
2,relearn,11,666,B,49.82295861344277,88.26443754536844,2.4911479306721387,1.386454542828823,B,887,Correct
2,relearn,11,667,B,32.191738917564905,82.61666343316097,1.6095869458782455,1.297739514528595,B,2037,Correct
2,relearn,11,668,C,78.07759622394853,64.51039658347209,3.903879811197427,1.013326939934,C,949,Correct
2,relearn,11,669,C,94.19098734187953,48.249773800685276,4.7095493670939765,0.7579056745480107,C,671,Correct
2,relearn,11,670,D,43.06388343451023,24.593376246517842,2.153194171725511,0.3863118507151509,D,757,Correct
2,relearn,11,671,A,38.1967436265887,42.23785545274306,1.909837181329435,0.663470681968626,C,6582,Incorrect
2,relearn,11,672,C,59.037551134538276,32.745068749290354,2.9518775567269135,0.5143583371203164,D,1389,Incorrect
2,relearn,11,673,C,85.73404740689568,64.81027463817044,4.286702370344784,1.0180374134020658,C,1030,Correct
2,relearn,11,674,C,54.6516443948946,61.73758352905304,2.7325822197447303,0.9697716943262963,C,1045,Correct
2,relearn,11,675,C,72.61020278363112,33.27275412628774,3.630510139181556,0.5226471996392252,C,1102,Correct
2,relearn,11,676,B,46.122809155065944,72.94377113189435,2.306140457753297,1.1457980775654724,C,1005,Incorrect
2,relearn,11,677,C,86.90802080888393,40.69638759820996,4.345401040444196,0.6392573615308959,C,744,Correct
2,relearn,11,678,D,50.92002308561049,29.375798674478467,2.5460011542805243,0.4614339665453718,D,957,Correct
2,relearn,11,679,B,70.70391132087593,78.59034375954182,3.5351955660437966,1.2344942329903652,B,2366,Correct
2,relearn,11,680,D,53.85036258943282,16.15891177180105,2.692518129471641,0.25382359256147907,D,1461,Correct
2,relearn,11,681,A,50.6456023048855,45.02581136777148,2.532280115244275,0.7072637910745534,C,1152,Incorrect
2,relearn,11,682,B,28.21215411753969,79.1879925541449,1.4106077058769844,1.2438820783031241,A,788,Incorrect
2,relearn,11,683,D,51.07772188193348,32.8647057657586,2.553886094096674,0.5162375909804867,B,1312,Incorrect
2,relearn,11,684,D,57.63250059988371,23.00658174830979,2.8816250299941855,0.36138654102351536,D,1069,Correct
2,relearn,11,685,C,82.29146715341125,41.931937929432394,4.1145733576705625,0.65866534074944,C,1099,Correct
2,relearn,11,686,C,79.1147320227731,31.643327099734993,3.9557366011386548,0.4970522197583313,C,639,Correct
2,relearn,11,687,C,57.14576479204069,57.12872643633574,2.8572882396020343,0.8973759364066668,D,718,Incorrect
2,relearn,11,688,B,34.3901232338116,79.18639813014507,1.71950616169058,1.2438570331495014,B,934,Correct
2,relearn,11,689,B,37.84097110683196,78.49110700613717,1.8920485553415978,1.2329354257130543,B,1925,Correct
2,relearn,11,690,A,10.304639323746096,48.814930887663984,0.5152319661873048,0.7667831413108933,A,635,Correct
2,relearn,11,691,D,62.08304429568851,14.129476310836196,3.104152214784426,0.22194529488597006,D,1153,Correct
2,relearn,11,692,D,58.19481721418514,5.1093736545455855,2.909740860709257,0.08025785368782823,D,924,Correct
2,relearn,11,693,A,12.69622367487309,38.522994467332936,0.6348111837436545,0.605117782064267,A,732,Correct
2,relearn,11,694,A,35.1642025944429,29.358742232174258,1.7582101297221449,0.46116604457617527,D,1903,Incorrect
2,relearn,11,695,D,68.83868807802465,31.398288836390257,3.4419344039012323,0.4932031677184702,D,2941,Correct
2,relearn,11,696,C,85.69847063631576,42.6773328081114,4.284923531815788,0.6703739761238471,C,1800,Correct
2,relearn,11,697,C,50.77044889051311,54.25001036128192,2.5385224445256553,0.8521571700408673,B,4317,Incorrect
2,relearn,11,698,D,60.7759121338792,34.47649916133496,3.0387956066939603,0.5415555824337228,C,964,Incorrect
2,relearn,11,699,C,59.52504284661828,62.025135465684436,2.9762521423309134,0.9742885495845297,D,2233,Incorrect
2,relearn,11,700,C,91.6153633432663,44.16863057101464,4.580768167163314,0.6937992266051057,C,2076,Correct
2,relearn,11,701,D,58.63435715987117,49.76064868890828,2.9317178579935588,0.7816384417946842,D,1261,Correct
2,relearn,11,702,D,72.66372896582268,18.243132577005422,3.633186448291134,0.28656245641192435,D,813,Correct
2,relearn,11,703,A,11.980457535553484,53.93059685191783,0.5990228767776742,0.8471398343684893,A,645,Correct
2,relearn,11,704,C,74.14697411960925,37.848491895989824,3.7073487059804626,0.5945227204494723,D,720,Incorrect
2,relearn,11,705,D,47.77402818771496,5.115400583079058,2.388701409385748,0.08035252445985058,D,643,Correct
2,relearn,11,706,A,33.585623418789595,57.285763935337506,1.6792811709394797,0.8998426756726772,B,2454,Incorrect
2,relearn,11,707,A,7.988384727271587,61.37944221354904,0.39941923636357934,0.9641460236976245,A,654,Correct
2,relearn,11,708,A,0.5417557423181698,60.975451247814036,0.02708778711590849,0.9578001484472758,A,1037,Correct
2,relearn,11,709,B,34.34503957144999,59.99138976595749,1.7172519785724996,0.9423425468368698,B,5961,Correct
2,relearn,11,710,D,31.170616672528144,14.222192491691873,1.5585308336264072,0.22340167724919552,D,726,Correct
2,relearn,11,711,B,52.71815022826518,61.98244718669437,2.635907511413259,0.9736180036661818,C,3979,Incorrect
2,relearn,11,712,A,22.637998107276843,50.95833874128531,1.131899905363842,0.8004517131438104,A,1173,Correct
2,relearn,11,713,C,87.1822900906772,35.84551785124687,4.35911450453386,0.5630600777279947,C,846,Correct
2,relearn,11,714,D,58.53577196526931,25.71947949801897,2.9267885982634656,0.40400063922564844,D,1132,Correct
2,relearn,11,715,A,20.408255971852075,73.3810740093736,1.0204127985926037,1.152667215101885,A,1049,Correct
2,relearn,11,716,B,72.62575397126528,84.65286200476866,3.631287698563264,1.3297240468976588,C,836,Incorrect
2,relearn,11,717,A,38.92826392162822,31.219146114241823,1.9464131960814113,0.4903892004192422,A,3670,Correct
2,relearn,11,718,D,39.11443218036674,27.016196735392253,1.9557216090183371,0.4243694259592243,A,883,Incorrect
2,relearn,11,719,C,58.18107092155314,45.48411105968509,2.9090535460776574,0.7144627458008447,D,4949,Incorrect
2,relearn,11,720,A,12.838316348149807,68.64258857013112,0.6419158174074903,1.0782352598765532,A,733,Correct
2,relearn,11,721,A,30.44657031817238,34.13724468631048,1.522328515908619,0.536226585601551,D,1055,Incorrect
2,relearn,11,722,B,54.64406795060662,90.21570220381591,2.732203397530331,1.4171049364097628,B,999,Correct
2,relearn,11,723,C,80.80900168987745,48.081353597672454,4.040450084493872,0.7552601361855049,C,1109,Correct
2,relearn,11,724,C,76.10202781546481,26.463511397233923,3.80510139077324,0.4156878649686993,D,1117,Incorrect
2,relearn,11,725,A,42.56122213205747,37.0734744449543,2.128061106602874,0.5823487747965868,A,3955,Correct
2,relearn,11,726,D,64.58415018051586,26.94222778953519,3.229207509025793,0.4232075244747326,A,1582,Incorrect
2,relearn,11,727,A,19.889122193233785,49.981713949486696,0.9944561096616893,0.7851109267876695,A,683,Correct
2,relearn,11,728,B,50.70072042591453,83.3671046417898,2.535036021295727,1.3095274174684919,B,633,Correct
2,relearn,11,729,B,40.48473972355957,55.097046339025574,2.0242369861779785,0.8654623800658958,A,1188,Incorrect
2,relearn,11,730,B,39.238926045554386,86.25261122465363,1.9619463022777195,1.354852848881542,B,686,Correct
2,relearn,11,731,C,72.33598721854527,49.814591206744076,3.6167993609272635,0.7824857688834297,C,746,Correct
2,relearn,11,732,B,62.50567717595347,59.92896209744465,3.125283858797674,0.9413619353129664,C,2103,Incorrect
2,relearn,11,733,B,50.549304292012806,87.48476413285289,2.52746521460064,1.3742074615040323,B,790,Correct
2,relearn,11,734,C,79.50157250679453,44.045221953323534,3.975078625339727,0.6918607285714654,C,1392,Correct
2,relearn,11,735,C,58.18871914844712,32.082468328229126,2.9094359574223563,0.5039502340449592,D,3068,Incorrect
2,relearn,11,736,D,50.778817929854576,-0.6075392495007499,2.5389408964927287,-0.00954320421499506,D,1334,Correct
2,relearn,11,737,C,87.57654513296485,64.41594069265804,4.3788272566482425,1.0118432302706515,C,3301,Correct
2,relearn,11,738,B,62.87934338011323,87.65877153229248,3.1439671690056614,1.3769407633427806,B,2061,Correct
2,relearn,11,739,A,14.313321936791557,29.27189068124032,0.7156660968395778,0.45980178360434054,A,677,Correct
2,relearn,11,740,B,40.42249129941063,85.33493058244186,2.0211245649705316,1.3404379550619714,B,1886,Correct
2,relearn,11,741,A,2.929333738048207,48.9251693088947,0.14646668690241035,0.768514762382302,A,1021,Correct
2,relearn,11,742,C,70.17385884449853,41.38040693294445,3.508692942224926,0.6500019121154723,D,1902,Incorrect
2,relearn,11,743,D,49.93164282376901,10.2721646449157,2.4965821411884503,0.16135478492465985,D,1142,Correct
2,relearn,11,744,C,64.7740967455591,72.86004564318353,3.2387048372779557,1.144482920664212,B,1598,Incorrect
2,relearn,11,745,B,64.05060664822507,92.70679016133107,3.2025303324112535,1.4562348545436408,B,643,Correct
2,relearn,11,746,D,53.13891786816261,23.566344769910753,2.65694589340813,0.3701792780055793,C,1062,Incorrect
2,relearn,11,747,C,81.78969810039213,72.36123636703029,4.0894849050196065,1.1366476428766847,C,1280,Correct
2,relearn,11,748,A,20.329147761623588,33.55524248024594,1.0164573880811794,0.527084516326824,A,645,Correct
2,relearn,11,749,D,37.78188784611759,42.71096626082412,1.8890943923058796,0.6709022891636329,A,644,Incorrect
2,relearn,11,750,D,57.88391870793348,35.040593417858176,2.894195935396674,0.5504163542948505,D,2589,Correct
2,relearn,11,751,A,22.387610692296445,26.05802722249597,1.1193805346148222,0.4093185344461808,A,3629,Correct
2,relearn,11,752,C,58.93150268393116,53.57565390831486,2.946575134196558,0.8415644036481562,C,6553,Correct
2,relearn,11,753,C,86.86954423292384,29.811181582297618,4.343477211646192,0.46827294526888774,C,778,Correct
2,relearn,11,754,D,45.142575125693014,9.660519210694517,2.2571287562846507,0.1517470809109048,D,640,Correct
2,relearn,11,755,A,10.705683028375631,46.71526650489451,0.5352841514187816,0.7338016903113296,A,380,Correct
2,relearn,11,756,B,26.573012728573747,77.88748636667071,1.3286506364286874,1.2234537748805392,B,1383,Correct
2,relearn,11,757,D,61.37405696702782,32.77042851604032,3.068702848351391,0.5147566874049087,C,1772,Incorrect
2,relearn,11,758,C,67.36376414324812,69.96649127780316,3.368188207162406,1.0990310749790038,C,692,Correct
2,relearn,11,759,B,56.78666897442612,82.55704386254864,2.8393334487213058,1.2968030125033656,B,721,Correct
2,relearn,11,760,C,51.39061061986483,40.6252237106359,2.5695305309932417,0.638139521798878,C,1620,Correct
2,relearn,11,761,A,31.029521144989808,70.06321276652871,1.5514760572494906,1.1005503725711259,B,1317,Incorrect
2,relearn,11,762,B,30.491464623594,63.29040424679838,1.5245732311797,0.9941633451223504,A,700,Incorrect
2,relearn,11,763,B,39.9979528250834,64.87801957180146,1.9998976412541702,1.0191015483311314,C,3975,Incorrect
2,relearn,11,764,D,30.043368671664865,36.39330084535117,1.5021684335832433,0.5716646328781922,D,1652,Correct
2,relearn,11,765,C,57.40130531430443,47.90087588534173,2.8700652657152217,0.7524251989095303,D,1485,Incorrect
2,relearn,11,766,D,76.04134254156722,23.657942196644825,3.8020671270783613,0.37161808702015675,C,980,Incorrect
2,relearn,11,767,A,37.942417906941586,42.14979844326875,1.8971208953470793,0.662087485698318,A,2423,Correct
2,relearn,11,768,A,41.694072881835744,45.36027236659325,2.084703644091787,0.7125174921586074,A,727,Correct
2,relearn,11,769,C,86.22690846713448,67.21416624218813,4.311345423356724,1.0557976544181065,C,1300,Correct
2,relearn,11,770,A,12.5868848575513,68.43181595258157,0.629344242877565,1.0749244513421954,A,639,Correct
2,relearn,11,771,A,32.759727659826474,55.049548298128094,1.6379863829913237,0.8647162825841788,A,661,Correct
2,relearn,11,772,C,76.58611131954594,40.16780442734074,3.8293055659772968,0.6309543964988262,C,670,Correct
2,relearn,11,773,B,53.73281618556722,61.10068230073095,2.686640809278361,0.9597672732265012,C,1408,Incorrect
2,relearn,11,774,D,45.823871402718,17.770499411450277,2.2911935701359,0.27913835200816967,D,739,Correct
2,relearn,11,775,A,4.569557987030606,59.40069550861017,0.22847789935153032,0.9330639431398696,A,1199,Correct
2,relearn,11,776,C,75.23369691397485,32.52017129432991,3.761684845698743,0.5108256561587426,C,664,Correct
2,relearn,11,777,B,71.30617939519739,80.69691815067658,3.565308969759869,1.2675842261475119,B,869,Correct
2,relearn,11,778,C,79.45324642382543,52.89001477203458,3.9726623211912715,0.8307944092803974,C,941,Correct
2,relearn,11,779,B,53.104274637481545,80.56815349393578,2.655213731874077,1.2655615956492174,B,1006,Correct
2,relearn,11,780,C,49.206575162650765,56.25061331500589,2.4603287581325386,0.8835825677517135,D,3406,Incorrect
2,relearn,11,781,A,14.248479263409527,48.619578475552004,0.7124239631704764,0.7637145527971331,A,997,Correct
2,relearn,11,782,A,35.68842009911012,29.080086314717256,1.7844210049555058,0.456788927660364,D,4310,Incorrect
2,relearn,11,783,C,86.6664539969355,26.418595578011274,4.333322699846775,0.4149823289302001,C,758,Correct
2,relearn,11,784,C,64.217693759866,58.648456147997294,3.2108846879932997,0.9212477948946571,C,2013,Correct
2,relearn,11,785,A,35.88760288989765,44.904857456114826,1.7943801444948826,0.7053638514731358,A,1676,Correct
2,relearn,11,786,A,33.06916255882476,63.54865104690543,1.653458127941238,0.998219876372497,B,1711,Incorrect
2,relearn,11,787,B,45.49916741653368,54.45194601168491,2.274958370826684,0.8553291678198867,D,6242,Incorrect
2,relearn,11,788,C,71.03456858325434,54.95821719795898,3.5517284291627167,0.8632816570175008,C,2062,Correct
2,relearn,11,789,C,87.03688436891849,32.52617623882967,4.351844218445924,0.5109199816063709,C,958,Correct
2,relearn,11,790,B,61.9098042639356,58.81371751493286,3.09549021319678,0.923843714376092,B,7166,Correct
2,relearn,11,791,A,42.615804102467465,51.140491976394834,2.130790205123373,0.8033129694700488,C,7517,Incorrect
2,relearn,11,792,A,10.56433386242883,27.59226958521248,0.5282166931214415,0.43341835712386306,A,614,Correct
2,relearn,11,793,A,6.340657858745267,65.56587087182767,0.31703289293726333,1.0299062912857542,A,527,Correct
2,relearn,11,794,B,24.090412109228318,81.20167476803715,1.2045206054614157,1.2755129245522658,B,2539,Correct
2,relearn,11,795,B,42.497370515938975,58.537983528801476,2.124868525796949,0.9195124950502152,C,2392,Incorrect
2,relearn,11,796,D,63.57583889270611,44.96553014058302,3.1787919446353055,0.7063168957721302,C,1108,Incorrect
2,relearn,11,797,D,59.51977666358832,49.21958984286658,2.975988833179416,0.7731395093152622,C,686,Incorrect
2,relearn,11,798,B,39.407018210832426,90.90948822548258,1.9703509105416215,1.4280029017539193,B,983,Correct
2,relearn,11,799,A,39.110083193537456,47.34336177902895,1.955504159676873,0.7436677878062058,A,2323,Correct
2,relearn,11,800,D,45.08113321680107,18.84313620883025,2.2540566608400536,0.29598729142126473,D,1375,Correct
2,relearn,11,801,A,51.309500080674965,54.1189078842018,2.5654750040337486,0.8500978171465555,D,5211,Incorrect
2,relearn,11,802,D,66.85374249926419,35.569517780738074,3.3426871249632093,0.5587246787584913,D,1287,Correct
2,relearn,11,803,A,20.858491182401416,56.39957040769456,1.0429245591200709,0.8859223802921676,A,765,Correct
2,relearn,11,804,D,28.917056380096913,9.792038328744534,1.4458528190048456,0.1538129783862675,D,1126,Correct
2,relearn,11,805,A,12.309255357459637,67.16608747024789,0.6154627678729818,1.055042434834501,A,803,Correct
2,relearn,11,806,C,88.58293700007277,33.932701188772455,4.429146850003638,0.5330136238555259,C,720,Correct
2,relearn,11,807,C,89.28689088315451,68.04736049394337,4.464344544157726,1.0688854391197442,C,845,Correct
2,relearn,11,808,A,20.471451780920184,39.10727457734657,1.023572589046009,0.6142956325705544,A,1458,Correct
2,relearn,11,809,C,84.2108387015656,48.46238944219824,4.21054193507828,0.7612454332350878,C,733,Correct
2,relearn,11,810,B,59.090506692284485,72.41839235142254,2.954525334614224,1.1375454469800617,B,1527,Correct
2,relearn,11,811,A,2.730542150016092,36.63621009513674,0.1365271075008046,0.575480242451269,A,863,Correct
2,relearn,11,812,C,95.25561692306754,63.91708303716632,4.762780846153377,1.0040071925422525,C,732,Correct
2,relearn,11,813,D,28.12819832685582,23.148007669112626,1.406409916342791,0.3636080541926221,A,1253,Incorrect
2,relearn,11,814,D,38.89099578233963,13.949143427316349,1.9445497891169816,0.2191126325756369,D,671,Correct
2,relearn,11,815,A,15.67623067944098,51.85610575794337,0.783811533972049,0.8145538044646513,A,1142,Correct
2,relearn,11,816,C,82.92809577615289,48.83717936987866,4.1464047888076445,0.767132619652289,C,754,Correct
2,relearn,11,817,A,13.880969523127714,58.02913386963883,0.6940484761563858,0.91151950329518,A,609,Correct
2,relearn,11,818,A,25.072972644221434,67.76708302023481,1.2536486322110718,1.0644828508578963,A,1594,Correct
2,relearn,11,819,D,75.27161796718673,31.64778663867903,3.7635808983593364,0.4971222700322563,D,1294,Correct
2,relearn,11,820,D,57.927529004489244,4.189166712629294,2.896376450224462,0.06580327684529548,D,821,Correct
2,relearn,11,821,C,59.27071817013466,55.24035609652963,2.963535908506733,0.8677134844727081,D,2134,Incorrect
2,relearn,11,822,A,22.221637175556882,64.59092995936048,1.1110818587778442,1.0145919552442988,A,647,Correct
2,relearn,11,823,D,66.45439000738406,22.699721341339686,3.322719500369203,0.356566389022441,D,1693,Correct
2,relearn,11,824,A,50.57010987639549,45.24967170075472,2.5285054938197744,0.710780180962205,D,2325,Incorrect
2,relearn,11,825,D,38.27829295677115,1.3838573162585739,1.9139146478385578,0.021737579891872114,D,654,Correct
2,relearn,11,826,C,81.69431961915193,46.339971303516016,4.084715980957596,0.7279065670734387,C,1000,Correct
2,relearn,11,827,B,50.097126098779825,71.29891927783966,2.504856304938991,1.119960805060764,C,2813,Incorrect
2,relearn,11,828,A,8.793038228777387,51.79978459983595,0.4396519114388694,0.8136691137818916,A,725,Correct
2,relearn,11,829,C,76.75322753634288,75.16884029970281,3.837661376817144,1.1807493823220534,C,430,Correct
2,relearn,11,830,C,83.38440440269333,53.725180708091436,4.169220220134667,0.8439131651266207,C,541,Correct
2,relearn,11,831,A,23.256385597746956,56.349165985089215,1.1628192798873478,0.8851306294733406,A,559,Correct
2,relearn,11,832,D,45.06096644670985,47.29611420807095,2.2530483223354922,0.7429256246970977,D,4270,Correct
2,relearn,11,833,A,30.31827265187221,42.488207486290555,1.5159136325936107,0.6674032025156462,A,1163,Correct
2,relearn,11,834,B,55.24195115062614,75.30765703532317,2.762097557531307,1.182929910506155,B,964,Correct
2,relearn,11,835,D,46.31261340018012,39.05967683662853,2.3156306700090057,0.613547969007718,D,1422,Correct
2,relearn,11,836,D,59.95775057266552,20.7892429698449,2.9978875286332762,0.32655666493879,D,1295,Correct
2,relearn,11,837,A,32.955950316113274,28.466465052583676,1.6477975158056637,0.4471501874143373,D,2140,Incorrect
2,relearn,11,838,A,40.05720777820527,69.53531526729644,2.0028603889102636,1.0922581780439435,B,1343,Incorrect
2,relearn,11,839,C,65.13147859823121,58.970265528432435,3.25657392991156,0.9263027648218138,C,2830,Correct
2,relearn,11,840,D,60.44779189209454,48.697000376860544,3.022389594604727,0.7649306931790224,C,1133,Incorrect
2,relearn,11,841,B,46.71178962242413,68.09186857501834,2.3355894811212066,1.0695845704223967,B,5844,Correct
2,relearn,11,842,C,76.07276842033002,34.08666100129844,3.803638421016501,0.5354320189354245,C,1135,Correct
2,relearn,11,843,B,38.17147253657585,52.85597959735334,1.9085736268287923,0.8302597860066862,A,1154,Incorrect
2,relearn,11,844,C,83.16696947003135,75.4637394547889,4.158348473501567,1.1853816474178949,C,559,Correct
2,relearn,11,845,A,11.721742413818,48.67303615857251,0.5860871206909,0.7645542641184089,A,631,Correct
2,relearn,11,846,A,11.975149372510966,44.80369707334222,0.5987574686255484,0.7037748278963721,A,652,Correct
2,relearn,11,847,B,51.56063324375293,53.28807468193618,2.5780316621876467,0.8370471197235747,A,5221,Incorrect
2,relearn,11,848,A,45.26289695363699,45.70642966202465,2.263144847681849,0.7179549182401762,A,1032,Correct
2,relearn,11,849,C,86.30355237496629,60.234321416242004,4.315177618748314,0.9461585082761611,C,635,Correct
2,relearn,11,850,D,66.76587830392214,24.03807806965146,3.3382939151961066,0.37758924735017474,D,862,Correct
2,relearn,11,851,D,27.145738216984558,21.616320229274557,1.3572869108492278,0.3395483641496669,A,1580,Incorrect
2,relearn,11,852,A,13.113925767314445,40.54604696477947,0.6556962883657222,0.6368958163832896,A,735,Correct
2,relearn,11,853,D,55.59965586897698,44.231005881509816,2.7799827934488492,0.6947790156911908,D,3477,Correct
2,relearn,11,854,D,33.54011604538931,40.546558126389726,1.6770058022694656,0.6369038456910874,A,1197,Incorrect
2,relearn,11,855,B,56.964539208121366,82.21821927271384,2.8482269604060684,1.291480768291963,B,773,Correct
2,relearn,11,856,A,37.33542985794318,48.058250755808366,1.866771492897159,0.7548972375941185,D,1918,Incorrect
2,relearn,11,857,B,36.54624528350475,94.84587216206674,1.8273122641752377,1.4898354760383274,B,750,Correct
2,relearn,11,858,B,39.26388065751884,77.54713395737215,1.9631940328759419,1.2181075317371197,B,1558,Correct
2,relearn,11,859,D,36.942462245571065,17.034699094744315,1.8471231122785532,0.2675804276608072,D,772,Correct
2,relearn,11,860,D,52.39559378122953,1.7543505826846761,2.619779689061476,0.027557274511915756,D,696,Correct
2,relearn,11,861,A,15.453281701254566,52.32881890326614,0.7726640850627282,0.821979165187658,A,740,Correct
2,relearn,11,862,A,25.716140428449314,57.38038414581797,1.2858070214224657,0.9013289664633098,A,1461,Correct
2,relearn,11,863,B,52.942633547264236,89.67408417346635,2.6471316773632116,1.4085972202837733,B,714,Correct
2,relearn,11,864,D,49.632252843557936,16.03794983259985,2.481612642177897,0.25192352686368674,D,1756,Correct
2,relearn,11,865,C,89.11674820690622,28.581210095543096,4.455837410345311,0.4489525983343231,C,708,Correct
2,relearn,11,866,C,74.85548787655496,48.91830729059057,3.742774393827748,0.7684069740508366,C,784,Correct
2,relearn,11,867,C,57.05742906065483,60.991505621890646,2.8528714530327415,0.9580523299655611,B,1636,Incorrect
2,relearn,11,868,C,88.96100813571891,67.15543565169267,4.448050406785946,1.0548751164598988,C,821,Correct
2,relearn,11,869,A,43.2657392903767,56.03216820265757,2.163286964518835,0.8801512399508831,D,4079,Incorrect
2,relearn,11,870,C,79.06324615014401,74.11394518530884,3.9531623075072004,1.1641791286136143,C,701,Correct
2,relearn,11,871,A,2.308326587168029,51.842265808114874,0.11541632935840145,0.8143364070411151,A,708,Correct
2,relearn,11,872,B,44.42079194616682,64.2968721625832,2.221039597308341,1.0099729061738674,B,2086,Correct
2,relearn,11,873,B,37.04388194678955,89.92504484804692,1.8521940973394775,1.4125393013417846,B,635,Correct
2,relearn,11,874,B,51.95768524775403,59.266413100790786,2.597884262387702,0.930954640010311,B,7232,Correct
2,relearn,11,875,C,96.7295795004338,38.45795998980116,4.8364789750216906,0.6040962228800476,C,662,Correct
2,relearn,11,876,A,32.912808128636556,43.15271135231915,1.6456404064318277,0.6778412048346335,A,3791,Correct
2,relearn,11,877,A,13.615605569518921,27.775257436712305,0.6807802784759461,0.43629272357370324,A,643,Correct
2,relearn,11,878,A,43.093839433457994,38.2097597309193,2.1546919716728996,0.600197502330436,D,2111,Incorrect
2,relearn,11,879,D,52.9171687771096,22.566364908220756,2.64585843885548,0.35447163106946417,D,1076,Correct
2,relearn,11,880,B,34.01508749685404,65.95537795825418,1.7007543748427023,1.0360246542919473,B,719,Correct
2,relearn,11,881,C,58.39278607521598,43.40782647200089,2.9196393037607993,0.6818485437636927,C,3566,Correct
2,relearn,11,882,A,35.15745547061497,70.59866320091629,1.7578727735307484,1.1089612083262934,B,2447,Incorrect
2,relearn,11,883,A,35.24910906185819,43.47254514973415,1.7624554530929095,0.682865142376277,C,1091,Incorrect
2,relearn,11,884,C,60.88706748496683,36.00785819837172,3.0443533742483413,0.565610113937538,D,2278,Incorrect
2,relearn,11,885,C,91.79827493999608,35.05493170848237,4.5899137469998035,0.5506415796373005,C,797,Correct
2,relearn,11,886,A,18.235127008135493,73.90224688102235,0.9117563504067746,1.1608537794259952,A,750,Correct
2,relearn,11,887,B,51.72780585778365,73.13763448319298,2.586390292889183,1.148843275966673,C,1038,Incorrect
2,relearn,11,888,C,91.54843889617328,59.990820999458236,4.5774219448086635,0.9423336126735914,C,838,Correct
2,relearn,11,889,C,71.06505209276061,27.312327488373654,3.5532526046380304,0.42902103694956617,D,1733,Incorrect
2,relearn,11,890,D,42.47294679876957,17.366719599184556,2.1236473399384783,0.2727957935487604,D,1542,Correct
2,relearn,11,891,D,59.1731015557148,24.73883073775956,2.95865507778574,0.3885966445207339,D,1965,Correct
2,relearn,11,892,B,44.51034259697659,58.72761650511244,2.2255171298488294,0.9224912428764995,C,5109,Incorrect
2,relearn,11,893,D,36.69883890737089,10.797098031158024,1.8349419453685445,0.16960041927387434,D,1512,Correct
2,relearn,11,894,D,53.41077937711951,11.343397087705382,2.6705389688559755,0.1781816647874354,D,1267,Correct
2,relearn,11,895,A,-0.3845407686472697,44.267432106722694,-0.019227038432363487,0.6953511974988248,A,792,Correct
2,relearn,11,896,A,6.467787389013619,46.58853138323289,0.323389369450681,0.7318109396755099,A,757,Correct
2,relearn,11,897,B,50.58357296210621,92.6906050959768,2.5291786481053107,1.455980620131567,B,2975,Correct
2,relearn,11,898,D,74.60072341266061,28.12009256219784,3.7300361706330305,0.44170938105832863,D,1165,Correct
