experiment,condition,subject,trial,cat,x,y,xt,yt,resp,rt,fb
2,new_learn,14,0,C,75.9175042418211,48.36906983123739,3.7958752120910555,0.7597795722139354,A,11630,Incorrect
2,new_learn,14,1,B,57.71532133238892,91.91086991852568,2.885766066619446,1.4437325686054368,A,1087,Incorrect
2,new_learn,14,2,C,67.03221720759878,69.2313588735067,3.351610860379939,1.0874836421752359,A,556,Incorrect
2,new_learn,14,3,A,22.114804879489764,45.52378600833728,1.1057402439744883,0.7150859584369311,B,1597,Incorrect
2,new_learn,14,4,B,42.75919084565402,63.56691629930285,2.137959542282701,0.9985067862862356,C,1103,Incorrect
2,new_learn,14,5,C,76.11661583174319,54.50237545295315,3.805830791587159,0.8561213116309515,D,443,Incorrect
2,new_learn,14,6,C,75.1493730398143,30.98170697593254,3.7574686519907146,0.48665951515630657,D,646,Incorrect
2,new_learn,14,7,C,92.78371928365748,39.63018427976787,4.639185964182874,0.6225094789686423,C,1008,Correct
2,new_learn,14,8,A,41.442508493374966,45.70170480107455,2.0721254246687484,0.7178807002979258,C,491,Incorrect
2,new_learn,14,9,C,85.62016851076586,44.85890547372035,4.281008425538293,0.704642039421594,C,478,Correct
2,new_learn,14,10,A,38.61933801356486,41.65778822126471,1.9309669006782428,0.6543590072036232,D,494,Incorrect
2,new_learn,14,11,B,39.92135209043215,79.46148961674771,1.9960676045216075,1.2481781601163813,D,1148,Incorrect
2,new_learn,14,12,B,54.61967041484874,97.82795795894582,2.7309835207424373,1.5366779701975766,A,855,Incorrect
2,new_learn,14,13,B,29.93637716163593,75.05328333976351,1.4968188580817965,1.1789342178399713,B,588,Correct
2,new_learn,14,14,A,47.0324299817743,64.84626786061612,2.351621499088715,1.0186027936181377,C,521,Incorrect
2,new_learn,14,15,C,53.45715078607691,54.26326251533029,2.6728575393038456,0.8523653343898802,C,475,Correct
2,new_learn,14,16,C,89.31060853799887,29.723377194949382,4.465530426899943,0.4668937171776569,C,720,Correct
2,new_learn,14,17,B,61.552499205123986,95.32211732869162,3.0776249602561996,1.4973163176222095,B,1035,Correct
2,new_learn,14,18,D,67.81894402226797,21.161430975420252,3.390947201113398,0.33240298045913874,A,841,Incorrect
2,new_learn,14,19,C,98.31283850735494,53.36208056480923,4.915641925367748,0.8382096014133569,C,909,Correct
2,new_learn,14,20,B,56.65498917198872,98.92015246226497,2.832749458599436,1.5538341213371694,D,995,Incorrect
2,new_learn,14,21,C,75.05466012683348,45.868742017453165,3.752733006341674,0.7205045147571817,C,544,Correct
2,new_learn,14,22,A,13.560739844268204,38.6480393069201,0.6780369922134102,0.6070819818113486,B,583,Incorrect
2,new_learn,14,23,A,33.25972978282037,43.38990756393359,1.6629864891410187,0.6815670742139699,A,893,Correct
2,new_learn,14,24,C,76.53015337731438,69.7762707184684,3.8265076688657187,1.0960430974201645,C,943,Correct
2,new_learn,14,25,C,82.04295841293512,66.3779562576051,4.102147920646757,1.042662498695984,C,627,Correct
2,new_learn,14,26,D,42.17755244161763,22.206658558347243,2.108877622080881,0.348821376938403,B,774,Incorrect
2,new_learn,14,27,D,57.86075845955963,2.6611192753732205,2.8930379229779812,0.04180076382919352,C,556,Incorrect
2,new_learn,14,28,D,33.33833951504118,24.893647843942187,1.666916975752059,0.3910285059379009,A,1103,Incorrect
2,new_learn,14,29,C,82.69838544102052,64.65048320655637,4.134919272051025,1.015527415463739,C,528,Correct
2,new_learn,14,30,C,98.86901827600967,55.838659904283965,4.943450913800484,0.8771116187079873,C,691,Correct
2,new_learn,14,31,A,43.252798730706026,34.11470192613853,2.1626399365353013,0.5358724847528118,D,590,Incorrect
2,new_learn,14,32,D,43.55031772821251,38.47584823657555,2.177515886410626,0.6043772108033078,C,380,Incorrect
2,new_learn,14,33,D,46.744734246519464,23.771352599474266,2.337236712325973,0.3733995334620049,B,592,Incorrect
2,new_learn,14,34,A,49.4271332255819,58.01939095212472,2.4713566612790947,0.9113664619047457,A,594,Correct
2,new_learn,14,35,A,50.881257119403,50.73038381916898,2.54406285597015,0.7968710056004589,C,486,Incorrect
2,new_learn,14,36,D,67.47731458206059,13.032054648478663,3.373865729103029,0.2047070357242064,C,655,Incorrect
2,new_learn,14,37,B,46.949321173393095,68.58806129352168,2.3474660586696547,1.0773787474184706,A,789,Incorrect
2,new_learn,14,38,C,78.6561672993453,73.48229711379159,3.9328083649672645,1.1542572239079505,C,833,Correct
2,new_learn,14,39,C,84.80617094679869,48.69862291095765,4.240308547339935,0.7649561798850208,C,827,Correct
2,new_learn,14,40,A,30.46915984688963,67.68710804680448,1.5234579923444815,1.0632266069128977,B,599,Incorrect
2,new_learn,14,41,A,1.1017535399950056,44.300168502235515,0.05508767699975028,0.6958654195970653,A,3715,Correct
2,new_learn,14,42,D,67.75752813075778,35.65913445469259,3.387876406537889,0.5601323741811645,C,839,Incorrect
2,new_learn,14,43,D,49.275706397031456,13.894121164491509,2.463785319851573,0.21824834489226494,B,1719,Incorrect
2,new_learn,14,44,C,91.64862139932991,58.664460209660994,4.582431069966495,0.9214991861074088,C,740,Correct
2,new_learn,14,45,A,1.0661688100480156,40.75459295957465,0.05330844050240078,0.6401716492092101,A,764,Correct
2,new_learn,14,46,B,46.13493020057023,73.92962444163749,2.306746510028512,1.1612838251425037,B,1415,Correct
2,new_learn,14,47,D,59.229557801988435,48.29197827595422,2.961477890099422,0.7585686208952782,C,999,Incorrect
2,new_learn,14,48,D,38.795539037926574,43.026041083905426,1.9397769518963286,0.6758514729112496,B,1165,Incorrect
2,new_learn,14,49,C,69.42460265099675,52.249025818862826,3.471230132549837,0.8207257783488145,C,580,Correct
2,new_learn,14,50,B,58.60359577408444,77.32320494908977,2.9301797887042222,1.2145900631003919,A,1062,Incorrect
2,new_learn,14,51,D,47.69695149595847,3.9070723670261174,2.3848475747979236,0.06137214922646467,B,1151,Incorrect
2,new_learn,14,52,B,28.00452322038424,64.07952570190913,1.400226161019212,1.0065588359531805,D,1076,Incorrect
2,new_learn,14,53,A,16.290488072240684,49.75679660024527,0.8145244036120343,0.7815779333274607,A,717,Correct
2,new_learn,14,54,C,71.11343027457988,69.45960175245214,3.555671513728994,1.0910688729338818,C,575,Correct
2,new_learn,14,55,D,38.25589946088055,11.79175582352001,1.9127949730440275,0.18522446734047565,B,534,Incorrect
2,new_learn,14,56,C,60.80462701986771,39.77665661256981,3.040231350993386,0.6248102609920658,C,700,Correct
2,new_learn,14,57,B,39.92008154024025,70.50209402613012,1.9960040770120122,1.1074443032759362,D,709,Incorrect
2,new_learn,14,58,B,58.678401402014515,79.0280146436146,2.9339200701007258,1.2413691511608311,C,598,Incorrect
2,new_learn,14,59,C,96.72106780528807,49.516598414644285,4.836053390264404,0.7778049090510125,C,784,Correct
2,new_learn,14,60,D,70.6902227499858,31.04958817606485,3.5345111374992895,0.48772579055456916,C,660,Incorrect
2,new_learn,14,61,D,66.50434230609997,12.980129469490752,3.3252171153049983,0.2038913969199826,C,693,Incorrect
2,new_learn,14,62,B,43.1656892211461,53.05729195728402,2.158284461057305,0.8334219931618616,B,846,Correct
2,new_learn,14,63,B,28.67744847557228,77.95309767332662,1.433872423778614,1.2244843948754527,A,613,Incorrect
2,new_learn,14,64,D,24.317350819708825,29.475754270359985,1.2158675409854411,0.46300406537390454,D,613,Correct
2,new_learn,14,65,D,41.53600265146734,31.174806655956196,2.0768001325733674,0.4896927178371709,B,1566,Incorrect
2,new_learn,14,66,D,27.948835925943627,9.792501754120273,1.3974417962971812,0.15382025785504705,D,894,Correct
2,new_learn,14,67,B,60.14780901863576,72.59000747814734,3.007390450931788,1.140241171086879,B,1278,Correct
2,new_learn,14,68,C,50.34866955039065,45.36359023847363,2.5174334775195324,0.7125696091682321,B,741,Incorrect
2,new_learn,14,69,B,56.27681224986122,65.01285997156997,2.813840612493061,1.0212196163777307,A,853,Incorrect
2,new_learn,14,70,C,65.15151972156714,39.77178340051673,3.257575986078357,0.6247337127561393,B,887,Incorrect
2,new_learn,14,71,C,93.65596738473687,49.1336889316168,4.682798369236844,0.7717901809566674,C,461,Correct
2,new_learn,14,72,D,54.982904086750324,24.329575881995762,2.7491452043375157,0.38216808427916654,B,1220,Incorrect
2,new_learn,14,73,B,42.008285402696785,88.79534060243395,2.1004142701348396,1.3947939485480498,A,672,Incorrect
2,new_learn,14,74,C,59.20032916746062,53.36291403654849,2.960016458373031,0.8382226935568219,B,611,Incorrect
2,new_learn,14,75,C,86.51962237005772,40.880592261213835,4.325981118502886,0.6421508416111457,C,479,Correct
2,new_learn,14,76,C,70.20817718360227,68.4837297582159,3.5104088591801137,1.0757399114941988,C,806,Correct
2,new_learn,14,77,C,94.60616992055924,39.932647530604484,4.730308496027962,0.6272605606026883,C,546,Correct
2,new_learn,14,78,A,38.619446722183596,70.83504313549466,1.9309723361091797,1.1126742556559308,A,1559,Correct
2,new_learn,14,79,B,52.83861243636318,52.42573356015539,2.641930621818159,0.8235014970582003,B,644,Correct
2,new_learn,14,80,C,84.34522736539158,52.84081708403973,4.217261368269579,0.8300216138045062,C,860,Correct
2,new_learn,14,81,A,14.985177106575975,46.841871550228056,0.7492588553287988,0.7357903977129661,D,678,Incorrect
2,new_learn,14,82,D,50.148087855881556,24.984261197201633,2.507404392794078,0.3924518571624859,A,3007,Incorrect
2,new_learn,14,83,B,48.833484811027446,63.80511008229407,2.4416742405513725,1.0022483254801153,B,1235,Correct
2,new_learn,14,84,C,78.61159001815408,34.517982662093786,3.9305795009077036,0.5422072037398684,C,783,Correct
2,new_learn,14,85,C,78.57459297592438,33.871891770492624,3.9287296487962187,0.532058431746841,C,862,Correct
2,new_learn,14,86,D,67.60977017187938,5.217712577651604,3.380488508593969,0.0819596375124667,C,827,Incorrect
2,new_learn,14,87,D,38.676119418792325,46.114790863330086,1.9338059709396163,0.7243694409903376,B,750,Incorrect
2,new_learn,14,88,C,81.71487326001248,64.46956160634197,4.085743663000624,1.0126855056131925,C,727,Correct
2,new_learn,14,89,C,57.47918727676922,58.37061659872618,2.873959363838461,0.9168835014603229,B,1879,Incorrect
2,new_learn,14,90,A,26.318988277239164,23.424934521255555,1.315949413861958,0.36795801101399195,D,893,Incorrect
2,new_learn,14,91,B,43.762370992307105,54.97325029178111,2.1881185496153552,0.8635177963030625,A,726,Incorrect
2,new_learn,14,92,A,23.5266743207146,66.99768701288431,1.1763337160357301,1.0523972066359282,D,941,Incorrect
2,new_learn,14,93,D,60.316235667827755,27.617309859166404,3.0158117833913876,0.4338116888273507,B,718,Incorrect
2,new_learn,14,94,D,64.77088600405197,19.737455215670877,3.238544300202599,0.3100352215305459,A,563,Incorrect
2,new_learn,14,95,A,36.28020627593503,30.509193285378643,1.8140103137967514,0.47923728746148303,B,1191,Incorrect
2,new_learn,14,96,B,33.92954510610542,60.85219758434952,1.6964772553052712,0.9558640844289349,D,526,Incorrect
2,new_learn,14,97,D,64.9585618229272,37.809468639471476,3.2479280911463597,0.5939097445694863,C,923,Incorrect
2,new_learn,14,98,D,30.096941109136992,11.648478591984857,1.5048470554568496,0.18297387385038802,A,1015,Incorrect
2,new_learn,14,99,D,36.522321846836974,33.590282894032015,1.8261160923418487,0.5276349298594694,B,565,Incorrect
2,new_learn,14,100,C,85.53902504525487,26.325353842978238,4.276951252262744,0.41351769118126125,C,806,Correct
2,new_learn,14,101,D,74.01797987380083,24.980766436220097,3.700898993690041,0.39239696158535775,C,566,Incorrect
2,new_learn,14,102,D,65.87543993787307,26.951098548524673,3.2937719968936534,0.4233468660310983,C,772,Incorrect
2,new_learn,14,103,C,92.04153255891288,58.609779938162646,4.602076627945644,0.920640270411231,C,629,Correct
2,new_learn,14,104,A,15.111375908481811,52.639092933511485,0.7555687954240906,0.8268529382577504,D,862,Incorrect
2,new_learn,14,105,C,64.6749601542583,66.82971225264109,3.233748007712915,1.049758665272085,B,1334,Incorrect
2,new_learn,14,106,A,26.653135586297925,52.640415683187236,1.3326567793148962,0.8268737159610697,B,1038,Incorrect
2,new_learn,14,107,C,65.10840644228982,67.04686624864578,3.255420322114491,1.0531697122648151,A,831,Incorrect
2,new_learn,14,108,D,34.680449623420046,38.84756286085492,1.734022481171002,0.6102160904676476,B,876,Incorrect
2,new_learn,14,109,A,47.539140836911045,52.95933425641766,2.376957041845552,0.83188327719484,B,628,Incorrect
2,new_learn,14,110,A,10.221535271113712,62.967803637098605,0.5110767635556855,0.9890959465949682,D,782,Incorrect
2,new_learn,14,111,B,47.956923869271435,76.3084112755967,2.3978461934635718,1.1986497213526157,A,1452,Incorrect
2,new_learn,14,112,C,77.53052705937559,25.416847460013077,3.8765263529687792,0.39924690628894743,C,545,Correct
2,new_learn,14,113,D,64.29578942161251,10.486396135066421,3.2147894710806257,0.16471992530278534,C,811,Incorrect
2,new_learn,14,114,D,28.664879829729202,26.058011629456924,1.4332439914864603,0.40931828951129634,A,823,Incorrect
2,new_learn,14,115,D,73.09968000600716,27.177168310661738,3.6549840003003577,0.4268979615507412,C,749,Incorrect
2,new_learn,14,116,A,27.602341900567428,31.98341187317637,1.3801170950283714,0.5023942588875372,B,870,Incorrect
2,new_learn,14,117,B,34.24924024415559,90.6544311622106,1.7124620122077794,1.423996474772812,A,900,Incorrect
2,new_learn,14,118,A,36.78788788151333,30.225383240518997,1.8393943940756663,0.47477920970175264,A,1382,Correct
2,new_learn,14,119,B,75.81583824732675,68.41499629312146,3.790791912366337,1.0746602487492167,C,902,Incorrect
2,new_learn,14,120,B,51.080540860017734,72.27678651764107,2.5540270430008865,1.135321107744495,A,719,Incorrect
2,new_learn,14,121,C,84.53354474672207,65.78821590138722,4.226677237336104,1.0333988788428863,C,642,Correct
2,new_learn,14,122,A,27.31427741854941,64.01787936599914,1.3657138709274705,1.0055904975731023,A,1069,Correct
2,new_learn,14,123,A,30.06850676200575,39.23846365407573,1.5034253381002876,0.616356345768972,A,741,Correct
2,new_learn,14,124,D,39.81753734153389,7.89697709521381,1.9908768670766945,0.12404542613945285,B,2344,Incorrect
2,new_learn,14,125,B,28.284786457577066,74.5082045244188,1.4142393228788532,1.1703721398303997,A,1165,Incorrect
2,new_learn,14,126,D,38.891770286610246,18.102481133818657,1.9445885143305122,0.28435310870876257,A,1102,Incorrect
2,new_learn,14,127,A,24.41189777371961,30.08859062947228,1.2205948886859803,0.47263047639210404,D,1581,Incorrect
2,new_learn,14,128,B,33.33705677631329,58.244901371751865,1.6668528388156645,0.9149087712927886,B,1151,Correct
2,new_learn,14,129,B,43.944579006155415,61.56626099393205,2.1972289503077707,0.9670805662376438,B,663,Correct
2,new_learn,14,130,C,62.324663545545334,43.100779281280744,3.1162331772772665,0.6770254577703337,A,2460,Incorrect
2,new_learn,14,131,D,66.6240580943763,20.267114291761388,3.331202904718815,0.3183550868423114,C,543,Incorrect
2,new_learn,14,132,B,52.71682264181233,77.09616780246256,2.6358411320906163,1.2110237719407115,A,1635,Incorrect
2,new_learn,14,133,C,53.09792769276518,64.68489983730869,2.6548963846382594,1.0160680306354029,B,2695,Incorrect
2,new_learn,14,134,B,40.77042112537848,59.62017788486076,2.038521056268924,0.9365115642439761,A,797,Incorrect
2,new_learn,14,135,C,72.41827786980355,61.186678254338794,3.6209138934901772,0.9611180945069656,C,1325,Correct
2,new_learn,14,136,A,0.7423371114960382,44.130330917939254,0.03711685557480191,0.6931976170614224,A,839,Correct
2,new_learn,14,137,B,43.46015258669964,55.63054510229709,2.173007629334982,0.8738425590428608,B,3284,Correct
2,new_learn,14,138,A,43.86929798484175,64.402425370235,2.1934648992420875,1.0116309320824757,B,670,Incorrect
2,new_learn,14,139,D,39.45633431170696,34.851334430277866,1.9728167155853482,0.5474434810698099,B,1165,Incorrect
2,new_learn,14,140,D,60.432280605860036,6.4011178116542204,3.021614030293002,0.10054852345927835,A,591,Incorrect
2,new_learn,14,141,C,69.20452820172174,46.79823725301256,3.4602264100860873,0.735104991775082,C,924,Correct
2,new_learn,14,142,A,9.086908813434949,66.35192096128227,0.4543454406717474,1.042253537217675,D,2351,Incorrect
2,new_learn,14,143,B,25.22964787242127,81.57226815547173,1.2614823936210635,1.2813341918694332,D,1116,Incorrect
2,new_learn,14,144,D,49.04400071978221,10.503284029909342,2.4522000359891107,0.1649851997346509,B,1432,Incorrect
2,new_learn,14,145,D,73.0184544709156,34.47295859545102,3.6509227235457797,0.5414999673548702,C,1004,Incorrect
2,new_learn,14,146,A,43.91771882818788,55.43313403876369,2.195885941409394,0.8707416333081915,A,609,Correct
2,new_learn,14,147,A,11.292806401703082,53.108348938311636,0.5646403200851541,0.8342239943444157,B,1492,Incorrect
2,new_learn,14,148,C,71.68932947975718,64.17715560642165,3.584466473987859,1.0080924029071163,C,592,Correct
2,new_learn,14,149,D,33.7832843240359,26.47922681333842,1.6891642162017948,0.41593472214760924,A,1091,Incorrect
2,new_learn,14,150,B,65.33699164800447,89.04181023993758,3.2668495824002237,1.3986654845606215,A,1119,Incorrect
2,new_learn,14,151,A,24.0644974414777,61.06071679574764,1.203224872073885,0.9591394965422384,A,659,Correct
2,new_learn,14,152,B,52.651556389457205,92.7345096335197,2.6325778194728606,1.456670270994587,A,1855,Incorrect
2,new_learn,14,153,C,65.88867229880148,27.440510546467166,3.2944336149400737,0.4310345317176725,A,2260,Incorrect
2,new_learn,14,154,C,91.72478221030141,64.95345801877379,4.586239110515071,1.0202865326851638,C,972,Correct
2,new_learn,14,155,B,26.665451394253907,83.6137378902609,1.3332725697126955,1.3134015234761307,A,1918,Incorrect
2,new_learn,14,156,A,21.495980789632096,67.18311764881489,1.074799039481605,1.055309944253878,A,1045,Correct
2,new_learn,14,157,B,72.1118959313483,80.83481472777927,3.6055947965674147,1.269750300515417,C,614,Incorrect
2,new_learn,14,158,A,45.15044857696699,43.05908670912103,2.2575224288483495,0.6763705523783027,B,2070,Incorrect
2,new_learn,14,159,A,29.87479867431542,33.722331462342815,1.493739933715771,0.5297091439200806,A,1156,Correct
2,new_learn,14,160,B,58.08669483136997,73.52679332440427,2.9043347415684986,1.1549561687498173,A,1433,Incorrect
2,new_learn,14,161,B,70.03383909472925,80.14245139763918,3.5016919547364624,1.2588746827575015,B,1108,Correct
2,new_learn,14,162,B,53.05771161200039,65.59837029248301,2.6528855806000196,1.0304167909916377,B,1238,Correct
2,new_learn,14,163,B,52.192569030026974,100.52510792007531,2.6096284515013486,1.5790447027151486,B,1213,Correct
2,new_learn,14,164,A,12.891067451729368,43.2354106973283,0.6445533725864684,0.6791402431083208,A,1526,Correct
2,new_learn,14,165,B,63.59362285071194,88.75966870916218,3.179681142535597,1.3942336157588389,B,935,Correct
2,new_learn,14,166,C,84.2645935046124,63.39426500426923,4.213229675230621,0.9957947860856835,C,789,Correct
2,new_learn,14,167,B,40.6462063086347,89.20240798049967,2.0323103154317352,1.4011881479702863,B,663,Correct
2,new_learn,14,168,D,34.15881845308489,38.313543097825075,1.7079409226542446,0.601827727645616,A,548,Incorrect
2,new_learn,14,169,C,78.46282894774411,39.60392388779756,3.9231414473872057,0.6220969816961708,B,1334,Incorrect
2,new_learn,14,170,C,80.0239825716479,36.01145729955733,4.001199128582396,0.5656666484867592,C,622,Correct
2,new_learn,14,171,D,61.14551454158443,26.494976224218192,3.0572757270792215,0.41618211331520055,C,636,Incorrect
2,new_learn,14,172,B,55.36551024964821,85.85874120140618,2.7682755124824103,1.3486659530240248,B,1152,Correct
2,new_learn,14,173,B,28.845935584844227,75.40658618168965,1.4422967792422114,1.184483885903409,A,1444,Incorrect
2,new_learn,14,174,A,42.65171388047584,31.23016002604615,2.132585694023792,0.49056220654130106,A,876,Correct
2,new_learn,14,175,D,67.11944131173011,42.97426915603772,3.3559720655865055,0.6750382413699927,A,838,Incorrect
2,new_learn,14,176,B,69.60510627054094,89.06064790576877,3.480255313527047,1.398961385923552,C,1100,Incorrect
2,new_learn,14,177,B,69.20419898059387,72.38373875034702,3.460209949029694,1.137001109487265,C,828,Incorrect
2,new_learn,14,178,B,33.55045421745787,90.59181131115228,1.6775227108728934,1.4230128444525436,A,1126,Incorrect
2,new_learn,14,179,D,31.542238885774925,15.337370142242836,1.5771119442887462,0.2409188468212877,B,926,Incorrect
2,new_learn,14,180,C,90.32963753256053,33.42543990992409,4.516481876628026,0.525045582320123,C,757,Correct
2,new_learn,14,181,A,1.8567807007282937,37.274605573690735,0.09283903503641469,0.5855081351788197,A,643,Correct
2,new_learn,14,182,A,12.576773523631925,59.05924947205861,0.6288386761815963,0.927700521339731,D,1047,Incorrect
2,new_learn,14,183,B,49.08165339996546,65.19100552761799,2.454082669998273,1.0240179202284814,B,1381,Correct
2,new_learn,14,184,D,44.503528058209085,26.707322176982718,2.2251764029104546,0.4195176357413234,B,1175,Incorrect
2,new_learn,14,185,B,74.75043362478881,76.87166416708581,3.7375216812394405,1.2074972770826926,C,1182,Incorrect
2,new_learn,14,186,B,62.902782889504365,81.45900773189007,3.145139144475218,1.2795551012961002,A,1044,Incorrect
2,new_learn,14,187,B,53.19540736937365,99.35224685655302,2.6597703684686826,1.560621444210933,B,1103,Correct
2,new_learn,14,188,A,19.333076212094095,33.60781771209878,0.9666538106047048,0.5279103661375723,D,2039,Incorrect
2,new_learn,14,189,C,83.93532221019458,27.444162898525036,4.19676611050973,0.43109190272963904,C,931,Correct
2,new_learn,14,190,A,23.3777296044082,73.65050624162393,1.16888648022041,1.1568994467092748,A,1005,Correct
2,new_learn,14,191,D,64.29042900777495,3.476487786750141,3.214521450388747,0.05460854245574441,B,1806,Incorrect
2,new_learn,14,192,B,67.16829745878583,55.808835537321286,3.3584148729392918,0.8766431386472476,C,858,Incorrect
2,new_learn,14,193,D,69.8608271658979,32.93762498766796,3.493041358294895,0.5173830034397663,C,734,Incorrect
2,new_learn,14,194,B,72.98371121097051,78.15322539220574,3.6491855605485255,1.227627993732504,C,502,Incorrect
2,new_learn,14,195,D,52.2473658971267,6.200710308447572,2.612368294856335,0.09740052976028697,B,1094,Incorrect
2,new_learn,14,196,B,68.57555271244162,85.27341562957864,3.428777635622081,1.3394716804419664,C,1109,Incorrect
2,new_learn,14,197,D,74.90889765884457,25.441069787773987,3.7454448829422287,0.39962738972367995,C,1100,Incorrect
2,new_learn,14,198,C,90.96392978247479,44.049265027748056,4.54819648912374,0.6919242370360155,C,518,Correct
2,new_learn,14,199,A,8.09537756443693,45.65263007515828,0.4047688782218465,0.7171098363058486,A,1356,Correct
2,new_learn,14,200,D,69.54096236139702,14.5995632238459,3.477048118069851,0.22932940284826994,B,1433,Incorrect
2,new_learn,14,201,A,11.630575987364926,31.951506188770974,0.5815287993682463,0.5018930855688585,A,1493,Correct
2,new_learn,14,202,B,75.91133410070941,77.3252466454775,3.7955667050354704,1.2146221339922545,B,1109,Correct
2,new_learn,14,203,C,101.11148711499013,51.306352080591616,5.055574355749506,0.8059182938943901,C,1054,Correct
2,new_learn,14,204,C,83.2856012163872,65.85415034567421,4.16428006081936,1.0344345746718393,C,836,Correct
2,new_learn,14,205,D,33.079446052643306,21.454344465367043,1.6539723026321653,0.3370040547999097,A,1142,Incorrect
2,new_learn,14,206,D,43.17477569313207,13.664209429998566,2.1587387846566033,0.21463689981197934,D,838,Correct
2,new_learn,14,207,B,64.11102788885215,84.35879999039948,3.2055513944426077,1.3251049315774486,B,1192,Correct
2,new_learn,14,208,D,43.73739586201798,34.91128203007497,2.1868697931008994,0.5483851357654245,A,1107,Incorrect
2,new_learn,14,209,C,93.77658414737752,41.44483019237703,4.688829207368876,0.6510138703082406,C,877,Correct
2,new_learn,14,210,B,46.53318133716175,75.19625261852487,2.3266590668580873,1.1811799740192,A,1357,Incorrect
2,new_learn,14,211,B,68.0407429709395,83.4805027191207,3.402037148546975,1.3113086703018615,C,957,Incorrect
2,new_learn,14,212,C,54.82698513729075,50.195919912628995,2.7413492568645377,0.7884756661884842,B,1078,Incorrect
2,new_learn,14,213,C,71.67034487364485,32.26693572652309,3.583517243682243,0.5068478411614948,B,1285,Incorrect
2,new_learn,14,214,A,37.60153515075616,68.26835001249609,1.8800767575378081,1.0723567343597717,A,718,Correct
2,new_learn,14,215,A,17.799029099947248,68.05419234527449,0.8899514549973624,1.0689927535895054,D,519,Incorrect
2,new_learn,14,216,D,50.385040022979474,48.53355842674942,2.5192520011489736,0.7623633530302348,B,1078,Incorrect
2,new_learn,14,217,A,18.036518051528244,62.44435563145727,0.9018259025764123,0.980873644549673,C,1930,Incorrect
2,new_learn,14,218,D,35.483397222799674,40.66775527093537,1.7741698611399839,0.6388076059857907,A,879,Incorrect
2,new_learn,14,219,C,87.3705784734877,55.35743768743268,4.3685289236743845,0.8695525978019661,C,1963,Correct
2,new_learn,14,220,C,49.037174747306416,53.377051935347254,2.451858737365321,0.8384447711518389,B,1703,Incorrect
2,new_learn,14,221,D,64.0103724773019,8.94254787042307,3.200518623865095,0.14046921347048083,B,2213,Incorrect
2,new_learn,14,222,D,58.300300434463104,44.69180975912779,2.915015021723155,0.7020173060745425,A,582,Incorrect
2,new_learn,14,223,A,32.65595917545335,65.37043601532419,1.6327979587726673,1.0268364077385206,A,916,Correct
2,new_learn,14,224,D,28.961064365227568,11.214280029716319,1.4480532182613783,0.17615349878327757,A,880,Incorrect
2,new_learn,14,225,B,36.29747364196593,78.95258258445222,1.8148736820982965,1.2401842671462826,A,1485,Incorrect
2,new_learn,14,226,D,66.08572902420755,38.89007659971577,3.304286451210378,0.610883894716057,B,1020,Incorrect
2,new_learn,14,227,A,15.466588282974035,61.5969473636864,0.7733294141487018,0.9675625866065717,A,1174,Correct
2,new_learn,14,228,B,47.00442294314112,76.98771162549123,2.350221147157056,1.2093201462966638,A,2054,Incorrect
2,new_learn,14,229,C,67.55759727018389,39.83112122472247,3.377879863509195,0.6256657891191629,B,1672,Incorrect
2,new_learn,14,230,D,47.47177808028196,4.202264001074109,2.3735889040140976,0.06600900857109636,C,908,Incorrect
2,new_learn,14,231,A,0.38863326360066,39.549236550289386,0.019431663180032997,0.6212379550073703,A,662,Correct
2,new_learn,14,232,D,49.141316003194056,7.866973613189334,2.4570658001597026,0.1235741325459018,B,1494,Incorrect
2,new_learn,14,233,A,46.78155246166387,34.66558793518037,2.3390776230831936,0.5445257819476681,A,1069,Correct
2,new_learn,14,234,A,17.749820488874462,40.13458299786156,0.8874910244437231,0.6304325555048583,A,2110,Correct
2,new_learn,14,235,B,37.7684144123156,76.21973416130936,1.88842072061578,1.1972567844986823,B,1715,Correct
2,new_learn,14,236,C,88.56679131631164,29.840857558525567,4.428339565815582,0.4687390944134168,C,846,Correct
2,new_learn,14,237,D,25.190795076156906,21.53482288459221,1.2595397538078452,0.3382682068529613,A,893,Incorrect
2,new_learn,14,238,A,31.910243863440517,53.11391379773966,1.595512193172026,0.8343114069519023,B,1417,Incorrect
2,new_learn,14,239,B,52.806412774178,77.25541319508041,2.6403206387089,1.2135251927185429,B,2421,Correct
2,new_learn,14,240,C,68.13679680255579,30.342777307352915,3.4068398401277897,0.476623231391455,B,1412,Incorrect
2,new_learn,14,241,B,56.67186787576763,77.9306777381854,2.833593393788382,1.2241322233577845,C,566,Incorrect
2,new_learn,14,242,D,52.565554095403016,4.787876335656609,2.6282777047701504,0.07520778561197611,B,2359,Incorrect
2,new_learn,14,243,A,38.65264171410968,47.651466259130856,1.932632085705484,0.748507481662337,A,756,Correct
2,new_learn,14,244,C,92.15999362337166,35.79127402970802,4.607999681168582,0.5622080177717492,C,759,Correct
2,new_learn,14,245,C,67.4990869836474,74.09467641254577,3.3749543491823704,1.1638764554388334,C,924,Correct
2,new_learn,14,246,D,51.99862784723789,26.251195998125443,2.5999313923618943,0.4123528224782833,A,1014,Incorrect
2,new_learn,14,247,A,11.259338306524501,61.851130190201424,0.562966915326225,0.9715552811088132,A,1156,Correct
2,new_learn,14,248,A,16.118246968048314,30.06852185794467,0.8059123484024157,0.4723152368661155,A,1037,Correct
2,new_learn,14,249,B,31.259822354369582,77.41998633380796,1.5629911177184792,1.216110301536566,A,1047,Incorrect
2,new_learn,14,250,A,9.580894518087076,70.8896056277172,0.4790447259043538,1.11353132127957,A,1116,Correct
2,new_learn,14,251,A,43.657139058833586,63.91156528942197,2.1828569529416795,1.0039205199633625,B,1487,Incorrect
2,new_learn,14,252,B,50.306271336217144,65.79916104706679,2.5153135668108573,1.0335708047891836,A,765,Incorrect
2,new_learn,14,253,B,36.24935774269641,55.29007708991375,1.8124678871348205,0.8684945000104318,D,831,Incorrect
2,new_learn,14,254,D,44.99232084436333,50.75427931876081,2.2496160422181664,0.7972463552303165,B,731,Incorrect
2,new_learn,14,255,A,4.282855727974017,33.35538777969788,0.21414278639870082,0.5239452060316881,D,1391,Incorrect
2,new_learn,14,256,B,65.75799781552018,82.76846244620039,3.2878998907760093,1.3001239678495289,A,1276,Incorrect
2,new_learn,14,257,D,52.20186546036105,3.8795406842305837,2.610093273018052,0.06093968256440761,C,814,Incorrect
2,new_learn,14,258,A,38.09545262111171,67.45496892126732,1.9047726310555857,1.059580174055906,B,532,Incorrect
2,new_learn,14,259,B,47.84489090370105,57.48593491543005,2.3922445451850525,0.9029869540752802,A,335,Incorrect
2,new_learn,14,260,A,46.967581484521794,62.68711680430586,2.3483790742260897,0.9846869281356627,D,502,Incorrect
2,new_learn,14,261,D,39.9464640440641,42.79571575874567,1.997323202203205,0.6722335311639617,C,407,Incorrect
2,new_learn,14,262,B,53.511823298991125,79.57869799831279,2.675591164949556,1.2500192650687014,C,710,Incorrect
2,new_learn,14,263,D,57.82604126358671,42.5768550409274,2.891302063179335,0.6687956750476753,B,500,Incorrect
2,new_learn,14,264,D,35.89013516023087,13.79474649150045,1.7945067580115435,0.21668737117915693,A,422,Incorrect
2,new_learn,14,265,D,39.95017669132399,42.974605573483345,1.9975088345661993,0.6750435258028712,C,932,Incorrect
2,new_learn,14,266,B,65.28397344690038,64.42607296599493,3.264198672345019,1.0120023876480482,C,733,Incorrect
2,new_learn,14,267,B,54.142273967952335,99.38282969752714,2.7071136983976167,1.561101838353584,B,928,Correct
2,new_learn,14,268,C,61.38760866195088,29.5907298540533,3.069380433097544,0.46481009761927006,C,764,Correct
2,new_learn,14,269,D,69.10005516024316,23.765532948776052,3.4550027580121583,0.37330811860260504,C,550,Incorrect
2,new_learn,14,270,B,56.388134193984875,80.45252618747908,2.8194067096992437,1.2637453261666236,B,1030,Correct
2,new_learn,14,271,C,86.26812073032924,27.170389633967275,4.313406036516462,0.4267914823462193,C,774,Correct
2,new_learn,14,272,C,90.68838410602206,53.67476687925165,4.534419205301103,0.8431212665550085,C,581,Correct
2,new_learn,14,273,D,35.92664022232286,44.800320696678355,1.7963320111161432,0.7037217918957575,A,1063,Incorrect
2,new_learn,14,274,A,20.747370243216565,36.068128067886825,1.0373685121608283,0.5665568308340453,D,1101,Incorrect
2,new_learn,14,275,B,71.32076702758054,86.46335932063437,3.566038351379027,1.3581632722319974,A,1259,Incorrect
2,new_learn,14,276,D,40.72788399147159,12.537671246703281,2.03639419957358,0.19694127940883505,A,1590,Incorrect
2,new_learn,14,277,C,83.67106852453081,32.78480273463203,4.183553426226541,0.5149824771025527,C,1117,Correct
2,new_learn,14,278,B,41.43847996639124,63.835204263190235,2.071923998319562,1.0027210437682115,D,1270,Incorrect
2,new_learn,14,279,A,13.948414556570489,40.09396687534894,0.6974207278285245,0.6297945589443437,A,1037,Correct
2,new_learn,14,280,D,49.792699815754844,50.44239919163771,2.489634990787742,0.7923473536494637,D,1879,Correct
2,new_learn,14,281,C,63.611441405418134,28.76693015655518,3.1805720702709066,0.45186988223082214,A,1796,Incorrect
2,new_learn,14,282,C,66.16459699833835,71.95430008391988,3.308229849916918,1.1302555026891905,C,557,Correct
2,new_learn,14,283,B,39.89368085413361,81.59503734791176,1.9946840427066805,1.281691849507922,D,607,Incorrect
2,new_learn,14,284,C,62.48445591770045,55.832762807498106,3.1242227958850224,0.8770189873282875,A,2093,Incorrect
2,new_learn,14,285,D,55.76127371791805,25.101248843554888,2.7880636858959025,0.39428949481420666,B,1007,Incorrect
2,new_learn,14,286,D,50.49581848918893,1.6925964629571446,2.5247909244594466,0.026587243067591165,C,885,Incorrect
2,new_learn,14,287,B,51.182169828827796,95.91494814503466,2.55910849144139,1.5066284823094342,A,1553,Incorrect
2,new_learn,14,288,C,93.407463979281,59.95361486246607,4.67037319896405,0.9417491800403762,C,613,Correct
2,new_learn,14,289,B,52.494983788827874,59.77046646160436,2.6247491894413937,0.9388722916870568,A,1245,Incorrect
2,new_learn,14,290,B,76.38679286208414,76.11441640367963,3.8193396431042066,1.1956024570303718,C,883,Incorrect
2,new_learn,14,291,B,49.453035622877735,90.19633218663638,2.472651781143887,1.416800672891407,B,855,Correct
2,new_learn,14,292,D,69.56544627965741,11.055696794282895,3.4782723139828704,0.17366247914617683,C,957,Incorrect
2,new_learn,14,293,D,45.7313980335445,25.250286167562436,2.286569901677225,0.3966305676252706,A,732,Incorrect
2,new_learn,14,294,C,98.13020566627897,54.2796213603605,4.906510283313948,0.8526222985267208,D,542,Incorrect
2,new_learn,14,295,A,4.912877187938367,43.796831471678644,0.24564385939691835,0.6879590200096795,A,1942,Correct
2,new_learn,14,296,C,65.66384036074149,38.880746250374976,3.283192018037074,0.6107373339313347,D,1404,Incorrect
2,new_learn,14,297,D,76.46763670749839,23.323855524342072,3.8233818353749194,0.3663702658433138,B,1031,Incorrect
2,new_learn,14,298,A,-0.5548820122920617,56.506221518277904,-0.027744100614603084,0.8875976520196969,A,756,Correct
2,new_learn,14,299,D,45.791552075993984,28.76356380357034,2.289577603799699,0.4518170036817893,B,1652,Incorrect
2,new_learn,14,300,D,49.445451609409695,-1.7935083235347307,2.472272580470485,-0.028172362866844276,A,816,Incorrect
2,new_learn,14,301,D,40.84431749840473,35.27575662449272,2.0422158749202364,0.5541102893066391,A,1302,Incorrect
2,new_learn,14,302,D,63.78102667717485,27.834170016101307,3.1890513338587425,0.4372181202067658,C,1060,Incorrect
2,new_learn,14,303,B,27.13877973738739,69.09580870466777,1.3569389868693695,1.0853544251021499,A,1375,Incorrect
2,new_learn,14,304,C,83.08786357872846,52.29528443257892,4.154393178936423,0.821452406953893,D,821,Incorrect
2,new_learn,14,305,B,31.34526872053535,77.01745567797545,1.5672634360267677,1.2097873647805257,D,1572,Incorrect
2,new_learn,14,306,B,26.342805159057722,69.19891905407819,1.3171402579528861,1.086974078683234,C,709,Incorrect
2,new_learn,14,307,C,61.41643173023547,47.12034315227848,3.0708215865117734,0.7401646194091409,B,2118,Incorrect
2,new_learn,14,308,A,14.039012769092894,61.31400294678629,0.7019506384546448,0.9631181060990337,D,1038,Correct
2,new_learn,14,309,B,29.924068989964567,66.95066628731193,1.4962034494982281,1.051658606805805,A,1085,Incorrect
2,new_learn,14,310,D,73.26353263833798,16.425937996307013,3.6631766319168992,0.25801803068759777,C,389,Incorrect
2,new_learn,14,311,B,63.63520502395181,85.74113247543886,3.1817602511975904,1.3468185594765396,B,1796,Incorrect
2,new_learn,14,312,C,89.17990518446197,46.91573238642986,4.458995259223099,0.736950601014964,C,615,Correct
2,new_learn,14,313,A,34.43727007960285,57.00389147941401,1.7218635039801424,0.8954150334887843,A,909,Correct
2,new_learn,14,314,D,29.949069551050023,39.33900970457589,1.4974534775525012,0.6179357194369659,B,885,Incorrect
2,new_learn,14,315,C,95.02294094013624,53.69851963328591,4.751147047006811,0.8434943739428914,C,701,Incorrect
2,new_learn,14,316,A,29.056416416291373,51.169992000772204,1.4528208208145688,0.803776354769372,D,1751,Incorrect
2,new_learn,14,317,B,73.58939534745814,87.02704469809736,3.679469767372907,1.367017621435866,B,1317,Incorrect
2,new_learn,14,318,D,59.69074630681913,41.68530911533932,2.9845373153409565,0.6547913043968482,A,694,Incorrect
2,new_learn,14,319,A,13.703140692591878,25.72684781701703,0.685157034629594,0.4041163805098166,D,949,Incorrect
2,new_learn,14,320,B,55.71755828056796,53.59992502283211,2.785877914028398,0.8419456534234654,A,1888,Correct
2,new_learn,14,321,D,69.27029301809527,40.94771477085774,3.463514650904764,0.6432051995270848,A,1533,Incorrect
2,new_learn,14,322,B,62.54593918051595,59.57165180374886,3.1272969590257973,0.9357493183443327,B,998,Correct
2,new_learn,14,323,D,31.882716399557893,11.60419967064531,1.5941358199778946,0.182278342180442,D,1262,Incorrect
2,new_learn,14,324,A,31.36600506585728,45.10623455472445,1.568300253292864,0.708527075541102,B,1339,Incorrect
2,new_learn,14,325,B,60.15064129884694,67.93315224469725,3.007532064942347,1.0670914601356893,B,1102,Correct
2,new_learn,14,326,D,28.094392713789805,11.565409001081516,1.4047196356894904,0.18166901976779476,A,878,Incorrect
2,new_learn,14,327,C,97.29402089476221,44.88223991708078,4.86470104473811,0.7050085760007778,C,790,Incorrect
2,new_learn,14,328,A,19.438699769131834,73.52495515630936,0.9719349884565917,1.1549272948729024,A,3137,Incorrect
2,new_learn,14,329,B,38.14492001900775,84.22488493638134,1.9072460009503873,1.3230013988279063,B,1709,Incorrect
2,new_learn,14,330,D,54.281647813808924,9.07881698449883,2.714082390690446,0.14260972370893882,D,1445,Incorrect
2,new_learn,14,331,B,73.8794086276001,70.04491278023313,3.6939704313800052,1.100262917058591,C,1099,Incorrect
2,new_learn,14,332,C,67.30006391297431,65.42511327462297,3.3650031956487156,1.027695276119178,A,1176,Incorrect
2,new_learn,14,333,C,65.13465214837443,31.07837041431909,3.256732607418721,0.4881779008958361,B,611,Incorrect
2,new_learn,14,334,C,76.22525188234793,49.574969268681585,3.8112625941173968,0.7787217962821491,B,2030,Incorrect
2,new_learn,14,335,D,57.044623187742864,1.1024666323935506,2.8522311593871432,0.017317505365777287,B,2269,Incorrect
2,new_learn,14,336,B,60.61407440064884,56.357845966053134,3.030703720032442,0.8852669742954884,A,926,Incorrect
2,new_learn,14,337,B,56.57703132152587,88.9883687442921,2.8288515660762936,1.3978260275100383,B,1126,Incorrect
2,new_learn,14,338,D,70.2749164708039,36.7768249835927,3.513745823540195,0.5776890159540619,B,1381,Incorrect
2,new_learn,14,339,A,35.97278067859187,40.4211020810342,1.7986390339295935,0.6349331867389006,D,1100,Incorrect
2,new_learn,14,340,B,50.89977052943632,51.49847430894346,2.544988526471816,0.8089361428002972,C,689,Incorrect
2,new_learn,14,341,A,29.41470218521456,65.5258206866035,1.470735109260728,1.029277184447378,A,394,Correct
2,new_learn,14,342,A,34.475148837094416,41.0867716836207,1.7237574418547208,0.6453895004049196,A,680,Correct
2,new_learn,14,343,C,80.99981611659337,52.67692573839506,4.049990805829668,0.827447214567185,B,1443,Incorrect
2,new_learn,14,344,D,47.85457778684899,17.406279934193424,2.39272888934245,0.2734172058379475,A,989,Incorrect
2,new_learn,14,345,B,59.41058986709853,66.72645308936795,2.9705294933549267,1.0481366741283114,B,1446,Incorrect
2,new_learn,14,346,C,71.6256278958671,48.27138427462489,3.5812813947933546,0.758245131078857,D,1171,Correct
2,new_learn,14,347,C,89.35068809045623,58.92192529631964,4.467534404522811,0.9255434382314219,C,1044,Incorrect
2,new_learn,14,348,C,80.96156397378348,29.888703573381363,4.048078198689174,0.46949065785728944,D,431,Incorrect
2,new_learn,14,349,B,42.86039693618301,84.00299051753343,2.1430198468091506,1.3195158894472803,A,757,Incorrect
2,new_learn,14,350,A,17.688289772381424,34.25231727807366,0.8844144886190712,0.5380341416461148,D,998,Incorrect
2,new_learn,14,351,C,71.37122626400873,71.15955352341659,3.568561313200436,1.117771652909476,B,1894,Incorrect
2,new_learn,14,352,C,72.74530967778786,39.43686054686651,3.637265483889393,0.6194727568734049,C,470,Correct
2,new_learn,14,353,C,78.97739055012183,50.3212879210982,3.948869527506091,0.7904449422604944,C,548,Incorrect
2,new_learn,14,354,A,26.28523166593924,30.7133951526178,1.314261583296962,0.48244488289132226,D,877,Correct
2,new_learn,14,355,A,25.563026706577094,68.76701785702683,1.2781513353288547,1.080189790544568,A,1533,Correct
2,new_learn,14,356,C,56.32489647316843,57.433386047555025,2.816244823658421,0.902161518388927,A,1118,Incorrect
2,new_learn,14,357,A,9.284323241575446,42.673586211197836,0.46421616207877237,0.6703151247171492,A,1601,Correct
2,new_learn,14,358,B,48.226622874348415,59.66995091283616,2.4113311437174207,0.9372933971391482,B,1651,Correct
2,new_learn,14,359,A,41.658762714553674,38.982938460799396,2.0829381357276837,0.6123425654189518,B,1207,Incorrect
2,new_learn,14,360,A,16.674704248544586,39.76420759203137,0.8337352124272293,0.6246147122347262,A,983,Correct
2,new_learn,14,361,B,32.7400684544511,80.01176973738382,1.6370034227225547,1.2568219400384157,B,3716,Correct
2,new_learn,14,362,D,37.96042243381804,10.959918871418488,1.898021121690902,0.17215800305194226,D,1676,Incorrect
2,new_learn,14,363,D,37.5010213318716,38.127037501814016,1.8750510665935798,0.5988981045942072,A,639,Incorrect
2,new_learn,14,364,C,71.10883827261586,74.03058121310292,3.555441913630793,1.1628696504003335,C,973,Incorrect
2,new_learn,14,365,A,15.148838494031537,42.86318593941513,0.7574419247015769,0.6732933502835995,B,473,Incorrect
2,new_learn,14,366,C,77.10997642760451,37.09650507152483,3.8554988213802255,0.5827105390327946,D,804,Incorrect
2,new_learn,14,367,A,11.441753846435399,50.68164965746175,0.5720876923217699,0.7961054911784675,A,1164,Correct
2,new_learn,14,368,A,11.033330132101828,62.234992586029314,0.5516665066050913,0.9775849775224247,A,816,Correct
2,new_learn,14,369,A,11.328000114117314,39.351620057233625,0.5664000057058657,0.6181338023933095,A,845,Incorrect
2,new_learn,14,370,B,73.00336921493353,81.20772774577426,3.6501684607466762,1.275608004504222,C,1565,Incorrect
2,new_learn,14,371,D,69.64224368990232,15.402115281183757,3.482112184495116,0.2419358610855499,A,1669,Correct
2,new_learn,14,372,B,46.85234373265644,91.67809862842671,2.3426171866328223,1.4400762057307295,D,2375,Incorrect
2,new_learn,14,373,A,37.12568657308234,61.88939823336994,1.8562843286541169,0.9721563941252407,B,1654,Incorrect
2,new_learn,14,374,D,53.771996199053966,22.405883781624425,2.688599809952698,0.3519507994276899,C,1021,Incorrect
2,new_learn,14,375,C,85.96233334909694,60.570346999360055,4.298116667454846,0.9514367857928706,C,790,Incorrect
2,new_learn,14,376,C,90.44671545708893,40.60179211108489,4.522335772854446,0.6377714590938215,B,517,Incorrect
2,new_learn,14,377,B,25.095910523020812,81.39960854726236,1.2547955261510406,1.2786220610858219,A,677,Incorrect
2,new_learn,14,378,D,32.787412939849155,12.110597508433825,1.6393706469924578,0.19023282081539278,D,607,Incorrect
2,new_learn,14,379,B,70.96375618349694,88.66936471743779,3.5481878091748467,1.3928151239738826,A,1503,Incorrect
2,new_learn,14,380,C,56.55272788575989,62.79401209414253,2.8276363942879947,0.986366035421934,B,715,Incorrect
2,new_learn,14,381,B,43.44097243374299,54.20460812241771,2.1720486216871495,0.8514439933405056,B,662,Incorrect
2,new_learn,14,382,D,75.76601761593182,21.419966334381286,3.7883008807965903,0.33646404438116473,C,480,Incorrect
2,new_learn,14,383,B,50.79350863412359,71.42144024922358,2.5396754317061796,1.1218853599788159,B,1034,Correct
2,new_learn,14,384,B,63.90076615290082,79.1737214973423,3.1950383076450413,1.243657909067074,B,1327,Correct
2,new_learn,14,385,C,72.27307618969019,40.932895378161625,3.6136538094845094,0.6429724170509608,A,1783,Incorrect
2,new_learn,14,386,A,7.362874014429995,51.2142234565843,0.3681437007214997,0.8044711408525564,D,957,Incorrect
2,new_learn,14,387,C,89.72603018028724,52.12133447176056,4.486301509014362,0.8187200073588972,C,932,Correct
2,new_learn,14,388,D,69.39458907809504,17.994773392963634,3.4697294539047516,0.28266123947173816,A,2165,Incorrect
2,new_learn,14,389,A,25.806843953287505,48.551841623301996,1.2903421976643754,0.7626505448101034,A,1532,Incorrect
2,new_learn,14,390,A,29.825159362865577,34.90547015830733,1.491257968143279,0.5482938430971802,B,585,Correct
2,new_learn,14,391,C,59.264196568880294,41.44486159357686,2.9632098284440143,0.651014363557134,B,2114,Incorrect
2,new_learn,14,392,B,42.896410670734575,76.24396810106299,2.1448205335367287,1.19763745033417,A,957,Incorrect
2,new_learn,14,393,C,96.46740411188637,48.76784599319459,4.823370205594318,0.7660435335180928,C,815,Incorrect
2,new_learn,14,394,D,36.394957668271566,25.74044726359796,1.8197478834135783,0.40433000011717424,B,1362,Incorrect
2,new_learn,14,395,B,24.590162107324396,79.14049898415978,1.2295081053662198,1.243136051050334,A,495,Incorrect
2,new_learn,14,396,C,65.7104811283401,27.29556160526815,3.2855240564170054,0.42875767907359025,D,1213,Incorrect
2,new_learn,14,397,D,30.616417722352345,8.403980497596578,1.5308208861176171,0.13200941696080654,A,1800,Incorrect
2,new_learn,14,398,A,12.399045505592374,27.40461749554585,0.6199522752796187,0.4304707249922258,A,923,Correct
2,new_learn,14,399,D,63.088878086501566,45.53585215594215,3.154443904325078,0.7152754930402939,B,1222,Incorrect
2,new_learn,14,400,B,66.13603472071846,62.27560630537017,3.3068017360359225,0.9782229363340055,A,1263,Incorrect
2,new_learn,14,401,C,66.41801436465143,52.07441511885328,3.320900718232571,0.8179829998868734,C,497,Correct
2,new_learn,14,402,A,24.117149297187574,74.37113511515889,1.2058574648593787,1.1682190585845853,D,1311,Incorrect
2,new_learn,14,403,D,43.0242834448507,26.45127955587826,2.1512141722425353,0.41549572765398507,A,1047,Incorrect
2,new_learn,14,404,B,53.80425433450084,98.74514578868087,2.6902127167250423,1.5510851229368645,A,2410,Incorrect
2,new_learn,14,405,C,65.80877538065022,41.7213730271729,3.290438769032511,0.6553577949992287,A,1441,Incorrect
2,new_learn,14,406,C,67.51436268691472,43.08775267793893,3.3757181343457363,0.6768208363635343,B,451,Incorrect
2,new_learn,14,407,C,85.19494279049867,74.48802795920432,4.259747139524934,1.1700552070851369,C,2222,Correct
2,new_learn,14,408,D,27.151556621062156,14.70603771037463,1.3575778310531077,0.23100190017163696,B,3189,Incorrect
2,new_learn,14,409,A,35.18147056231339,73.3043914032243,1.7590735281156697,1.151462687541201,A,2940,Correct
2,new_learn,14,410,C,58.083041133417794,45.40079977055493,2.9041520566708896,0.7131540951313828,B,2310,Incorrect
2,new_learn,14,411,A,-0.876075946118636,53.39525006283225,-0.0438037973059318,0.8387306266699186,A,757,Incorrect
2,new_learn,14,412,D,70.58213241692646,41.5245665467381,3.529106620846323,0.6522663660336645,A,1235,Incorrect
2,new_learn,14,413,A,24.920150559058357,24.945213430844877,1.246007527952918,0.3918384962828586,A,2495,Correct
2,new_learn,14,414,D,45.93720833385258,2.7338064374629845,2.2968604166926294,0.04294253110135098,A,789,Incorrect
2,new_learn,14,415,A,21.59346164484621,47.14342023499262,1.0796730822423106,0.7405271133767461,C,917,Correct
2,new_learn,14,416,A,-0.023788235695107574,59.6808310628018,-0.0011894117847553788,0.9374643021351583,A,720,Incorrect
2,new_learn,14,417,A,20.671112111366803,25.350935273514807,1.0335556055683401,0.3982115600845224,C,908,Incorrect
2,new_learn,14,418,A,19.25167153675593,35.7285666489574,0.9625835768377965,0.5612230125382893,B,1039,Correct
2,new_learn,14,419,A,47.72773162861513,44.821105419200464,2.3863865814307563,0.7040482775536692,A,1124,Correct
2,new_learn,14,420,A,28.54414464125786,36.36682534403576,1.4272072320628928,0.5712487566760293,B,567,Incorrect
2,new_learn,14,421,A,17.41311809388336,61.6618511290885,0.8706559046941679,0.9685820925694595,B,461,Correct
2,new_learn,14,422,B,40.04911999274891,90.84938282313647,2.0024559996374456,1.4270587683016613,A,2764,Incorrect
2,new_learn,14,423,A,26.804327099595497,45.47703039670741,1.3402163549797748,0.7143515230068787,B,1078,Incorrect
2,new_learn,14,424,D,35.447534800773894,42.595852061354094,1.7723767400386947,0.6690940795467383,A,1195,Incorrect
2,new_learn,14,425,D,53.59504865012673,13.178901774982203,2.679752432506336,0.20701370499332786,B,1693,Correct
2,new_learn,14,426,B,62.607584366461154,96.93382610343828,3.1303792183230574,1.522632979854561,B,2543,Incorrect
2,new_learn,14,427,A,29.497877587727928,69.81471323237763,1.4748938793863966,1.0966469510165784,A,823,Correct
2,new_learn,14,428,B,51.42245450616924,49.47478581043412,2.571122725308462,0.7771481181999418,A,973,Incorrect
2,new_learn,14,429,B,60.54927065812219,86.20363596098254,3.0274635329061095,1.3540835472387585,D,1748,Correct
2,new_learn,14,430,A,-0.6476415611998263,45.91880482025824,-0.03238207805999131,0.7212908994247342,B,1030,Incorrect
2,new_learn,14,431,A,38.724261006007836,67.58639839108312,1.936213050300392,1.0616446633400989,D,1004,Incorrect
2,new_learn,14,432,A,31.907870620839837,35.452677376365024,1.595393531041992,0.5568893539783871,C,894,Incorrect
2,new_learn,14,433,D,58.16098546444478,25.23880704789408,2.9080492732222387,0.39645025403517165,A,1584,Incorrect
2,new_learn,14,434,C,96.13465125306425,37.85058531485764,4.806732562653212,0.5945556037961522,C,1070,Incorrect
2,new_learn,14,435,D,29.95871346316681,36.40884769527122,1.4979356731583406,0.5719088422256686,B,883,Incorrect
2,new_learn,14,436,A,38.606910202351926,66.20815166601673,1.9303455101175961,1.039995214408585,D,893,Incorrect
2,new_learn,14,437,B,54.73039761076309,89.78655405932604,2.7365198805381543,1.4103638931196074,A,320,Incorrect
2,new_learn,14,438,B,36.14994099496701,76.53100846325428,1.8074970497483505,1.2021462697998897,C,445,Incorrect
2,new_learn,14,439,A,42.28677517076318,51.18491533424478,2.114338758538159,0.8040107699433948,B,1189,Incorrect
2,new_learn,14,440,B,26.843195953871774,77.02406795346555,1.3421597976935888,1.209891230161042,A,504,Incorrect
2,new_learn,14,441,C,82.11207227240597,37.71496744633778,4.105603613620298,0.5924253232989648,C,1299,Incorrect
2,new_learn,14,442,C,91.47659040874308,52.860959045811605,4.573829520437154,0.8303380030001632,C,1102,Incorrect
2,new_learn,14,443,A,23.109092788442887,33.718820087858674,1.1554546394221443,0.5296539873786638,A,380,Incorrect
2,new_learn,14,444,C,84.82926523892182,63.122430218300885,4.241463261946091,0.9915248152527423,B,1189,Incorrect
2,new_learn,14,445,C,85.22129861557126,74.6693779281539,4.261064930778563,1.172903845736041,C,1045,Incorrect
2,new_learn,14,446,B,51.82973267498856,81.64011035382607,2.5914866337494282,1.2823998546292,D,664,Incorrect
2,new_learn,14,447,D,28.364924054111817,28.12782282045635,1.4182462027055909,0.44183080767110494,A,899,Incorrect
2,new_learn,14,448,D,59.566930472562156,10.010132630437926,2.978346523628108,0.1572387956662163,B,1452,Correct
2,new_learn,14,449,C,75.66589751755501,49.67920839758694,3.78329487587775,0.7803591806900774,B,1055,Incorrect
2,new_learn,14,450,A,31.998140854995796,52.53547066826149,1.59990704274979,0.8252252435214616,B,1141,Incorrect
2,new_learn,14,451,C,71.0626788076179,67.97714965288324,3.553133940380895,1.0677825698073597,A,766,Incorrect
2,new_learn,14,452,A,6.335071093112493,31.26643149401158,0.31675355465562466,0.4911319574277766,A,1533,Incorrect
2,new_learn,14,453,C,60.89844943368341,39.8160175764904,3.0449224716841705,0.6254285415675217,B,1549,Incorrect
2,new_learn,14,454,B,52.01465359162918,92.82735823513332,2.600732679581459,1.458128733418214,A,757,Incorrect
2,new_learn,14,455,C,53.73560127068873,66.34327739911377,2.6867800635344365,1.0421177644606279,D,718,Correct
2,new_learn,14,456,B,58.77924484640208,62.51440532720299,2.938962242320104,0.9819739825973776,A,3205,Incorrect
2,new_learn,14,457,B,60.378591195203626,88.13539985477641,3.0189295597601813,1.3844276235248223,D,1354,Incorrect
2,new_learn,14,458,C,70.54100128427396,70.59333697500335,3.5270500642136984,1.1088775441652963,B,736,Incorrect
2,new_learn,14,459,B,51.29570327532329,53.677879926770984,2.5647851637661643,0.8431701661910939,A,679,Incorrect
2,new_learn,14,460,B,26.28868027844852,66.55335723363878,1.314434013922426,1.0454176907846835,D,1116,Incorrect
2,new_learn,14,461,C,59.99888996306278,28.648668126265093,2.999944498153139,0.4500122266030324,D,1278,Incorrect
2,new_learn,14,462,C,97.90961171639616,41.39458529125593,4.895480585819808,0.6502246252470287,C,846,Incorrect
2,new_learn,14,463,C,69.36941854977557,73.31263593557244,3.4684709274887786,1.1515921923524874,A,989,Incorrect
2,new_learn,14,464,C,81.33506093318739,46.4930400881001,4.066753046659369,0.7303109659191551,B,836,Incorrect
2,new_learn,14,465,C,94.76019859033295,55.095557541219385,4.738009929516648,0.8654389940846426,C,590,Correct
2,new_learn,14,466,A,50.13013866599954,52.505764268362164,2.5065069332999768,0.8247586164830202,A,1813,Incorrect
2,new_learn,14,467,A,24.1243362985252,56.067573628568425,1.2062168149262602,0.8807073870805769,A,906,Incorrect
2,new_learn,14,468,A,43.699505978602396,39.74632137908964,2.18497529893012,0.6243337562588348,D,518,Incorrect
2,new_learn,14,469,B,59.71099722831916,91.2351826958094,2.985549861415958,1.433118898530387,C,599,Incorrect
2,new_learn,14,470,B,36.94907628101429,97.6937025944441,1.8474538140507146,1.5345690918634582,A,605,Incorrect
2,new_learn,14,471,B,36.66798398034766,92.37812729434899,1.8333991990173828,1.4510722303015475,B,1125,Incorrect
2,new_learn,14,472,B,50.84864477079554,80.84206600628067,2.542432238539777,1.2698642033317626,C,757,Correct
2,new_learn,14,473,D,45.12531503549174,47.247783776931286,2.2562657517745865,0.7421664520600316,A,741,Correct
2,new_learn,14,474,B,30.592327660625287,62.538211838434606,1.5296163830312646,0.9823479344013419,B,376,Incorrect
2,new_learn,14,475,D,27.947136265623936,22.44606947464679,1.3973568132811969,0.3525820348175823,A,491,Incorrect
2,new_learn,14,476,B,32.817437331757084,88.71622163928043,1.640871866587854,1.393551150781036,D,792,Incorrect
2,new_learn,14,477,B,37.06511116424033,60.02830427168614,1.8532555582120165,0.94292239853691,C,1118,Incorrect
2,new_learn,14,478,A,48.918650957010364,57.33754214626238,2.4459325478505183,0.9006560059079651,A,643,Correct
2,new_learn,14,479,D,67.73162967053713,7.6548403377402785,3.3865814835268564,0.12024195084723834,D,1447,Correct
2,new_learn,14,480,D,65.28560850081922,15.456194606372545,3.264280425040961,0.24278533713917083,A,1509,Incorrect
2,new_learn,14,481,B,67.13673399604167,61.954624733736196,3.3568366998020838,0.9731809695970907,B,937,Incorrect
2,new_learn,14,482,A,14.915608281082767,34.03490757373948,0.7457804140541383,0.5346190779963378,A,1637,Correct
2,new_learn,14,483,A,27.45512940353099,23.719355133682985,1.3727564701765493,0.37258275917932904,D,988,Incorrect
2,new_learn,14,484,B,64.46571171852642,77.90814529467873,3.2232855859263214,1.2237782845628447,B,846,Correct
2,new_learn,14,485,B,38.334489138160336,97.30435913996561,1.9167244569080168,1.5284532991818942,A,791,Incorrect
2,new_learn,14,486,D,54.67924839983935,48.110605167404486,2.733962419991968,0.7557196187683854,C,877,Incorrect
2,new_learn,14,487,A,24.904541937520307,64.94619698886385,1.2452270968760153,1.020172476694051,D,412,Incorrect
2,new_learn,14,488,B,28.313338604773534,67.43522243061314,1.4156669302386768,1.0592699969060393,A,327,Correct
2,new_learn,14,489,D,42.1480313559247,43.08355095367482,2.107401567796235,0.6767548358331317,A,558,Incorrect
2,new_learn,14,490,B,65.9849027228775,79.24906769249456,3.299245136143875,1.2448414443329057,C,1099,Incorrect
2,new_learn,14,491,C,88.78197571241893,42.637220253579954,4.439098785620946,0.6697438895906836,A,839,Incorrect
2,new_learn,14,492,D,37.63433082307169,45.14553330219128,1.8817165411535848,0.7091443788227875,A,468,Incorrect
2,new_learn,14,493,C,59.16155172880018,40.71388179975769,2.958077586440009,0.6395321598062096,C,493,Correct
2,new_learn,14,494,A,12.086018642954262,39.55327758783331,0.6043009321477131,0.6213014314766746,A,988,Correct
2,new_learn,14,495,C,64.95786026638116,33.60429510376304,3.2478930133190578,0.5278550331352272,D,1893,Incorrect
2,new_learn,14,496,A,40.38734066049326,39.498684583567155,2.019367033024663,0.6204438865709748,A,1423,Incorrect
2,new_learn,14,497,A,47.09987730949296,52.15351926351415,2.3549938654746483,0.819225564885549,B,813,Incorrect
2,new_learn,14,498,D,30.861337055658968,41.47412324660625,1.5430668527829485,0.6514740045280792,C,544,Incorrect
2,new_learn,14,499,C,76.51903899520106,33.519319007744855,3.825951949760053,0.5265202317403197,D,573,Incorrect
2,new_learn,14,500,B,46.3008173671747,68.27243268531107,2.3150408683587353,1.0724208648343847,A,598,Incorrect
2,new_learn,14,501,C,83.61604062008752,59.025413090745474,4.180802031004376,0.9271690207049439,B,854,Incorrect
2,new_learn,14,502,D,67.34911992429572,12.490711263927246,3.3674559962147863,0.1962036337243256,D,1141,Correct
2,new_learn,14,503,C,54.08056474645139,60.00615222091331,2.7040282373225693,0.9425744349370605,C,2109,Incorrect
2,new_learn,14,504,C,93.06739647551186,54.643362110807715,4.653369823775592,0.8583359248738017,C,860,Correct
2,new_learn,14,505,D,64.20803440988735,14.290435321402832,3.210401720494367,0.22447363311159615,D,1143,Correct
2,new_learn,14,506,A,42.7796498396492,42.01896569838666,2.13898249198246,0.6600323697474652,A,1150,Correct
2,new_learn,14,507,A,33.47556331434243,64.35818403634295,1.6737781657171213,1.0109359908347746,A,883,Incorrect
2,new_learn,14,508,D,27.314224883571406,16.44673424533903,1.3657112441785701,0.25834469740350385,D,1092,Incorrect
2,new_learn,14,509,C,97.24477957591516,57.58001783040075,4.862238978795758,0.9044648050477815,C,808,Correct
2,new_learn,14,510,D,56.108119682469166,24.385977790829344,2.8054059841234587,0.38305404339136656,A,1907,Incorrect
2,new_learn,14,511,A,2.8578694101632216,42.740168142080954,0.1428934705081611,0.6713609912417702,A,1519,Correct
2,new_learn,14,512,B,63.15122755576437,95.29271571445783,3.1575613777882188,1.4968544781458066,B,2556,Correct
2,new_learn,14,513,B,56.41192455794615,80.63534145444457,2.8205962278973074,1.266616981664938,C,2085,Correct
2,new_learn,14,514,C,71.68825769765759,67.74795296399843,3.58441288488288,1.0641823566372217,C,973,Correct
2,new_learn,14,515,D,44.270195462097476,13.753427028312819,2.213509773104874,0.21603832656915425,B,1910,Incorrect
2,new_learn,14,516,A,0.1930235568172911,52.88738021855043,0.009651177840864555,0.830753025811041,D,2097,Incorrect
2,new_learn,14,517,D,59.04932512116264,20.657611480659998,2.952466256058132,0.3244890023417681,B,1637,Correct
2,new_learn,14,518,D,65.54930192817908,9.471354704872777,3.277465096408954,0.1487756918018572,C,716,Incorrect
2,new_learn,14,519,A,41.37670089677345,43.26922098523772,2.0688350448386728,0.6796713338688807,B,2732,Incorrect
2,new_learn,14,520,A,25.298065998526834,34.73041192728904,1.2649032999263417,0.5455440348345929,A,904,Incorrect
2,new_learn,14,521,D,36.3300329019354,16.146987845650607,1.81650164509677,0.2536362919674981,D,1334,Incorrect
2,new_learn,14,522,C,83.39429752845417,57.33968480409265,4.1697148764227085,0.9006896626984587,C,827,Correct
2,new_learn,14,523,D,71.55125408194876,35.5220656423863,3.5775627040974376,0.557979302312276,C,638,Incorrect
2,new_learn,14,524,D,67.76735848190748,6.4304108046995445,3.388367924095374,0.10100865671804259,D,981,Correct
2,new_learn,14,525,A,46.350804547331364,58.45274294773721,2.3175402273665684,0.918173539133919,B,2797,Incorrect
2,new_learn,14,526,B,73.89370767239353,75.78756870503281,3.6946853836196767,1.1904683453858138,C,1774,Incorrect
2,new_learn,14,527,D,44.206824632597176,37.02742324596377,2.210341231629859,0.5816254042543985,A,813,Correct
2,new_learn,14,528,D,73.32217653368816,37.29306562330322,3.666108826684408,0.5857981049600574,C,616,Incorrect
2,new_learn,14,529,B,38.51947826530572,53.22670504365428,1.9259739132652862,0.8360831276996753,B,1789,Correct
2,new_learn,14,530,D,24.393737467253693,22.72122034161314,1.2196868733626847,0.35690409452903404,B,1581,Incorrect
2,new_learn,14,531,B,63.50467995603574,93.23607149609163,3.175233997801787,1.464548786308471,A,1427,Incorrect
2,new_learn,14,532,A,16.560238231405776,58.63723196573656,0.8280119115702889,0.9210714858519929,A,1310,Incorrect
2,new_learn,14,533,A,23.861902824378195,57.30661515633408,1.1930951412189097,0.9001702058861833,B,762,Incorrect
2,new_learn,14,534,A,26.174486689216256,70.95451147096874,1.3087243344608128,1.1145508598812404,D,398,Incorrect
2,new_learn,14,535,D,33.562677842017735,24.768291546384248,1.6781338921008868,0.3890594138204546,A,685,Incorrect
2,new_learn,14,536,D,62.137309238052,18.84377708914371,3.1068654619026,0.2959973583456877,C,408,Incorrect
2,new_learn,14,537,B,72.97465917029763,72.59293921739557,3.6487329585148816,1.1402872227393015,B,660,Incorrect
2,new_learn,14,538,C,97.26762535237894,50.03167777572065,4.863381267618947,0.7858957567348787,C,573,Incorrect
2,new_learn,14,539,D,68.46905583322643,25.823419000372198,3.4234527916613215,0.40563331711070183,A,701,Incorrect
2,new_learn,14,540,D,52.77304230972356,23.30911238823943,2.6386521154861775,0.3661386812029591,B,784,Incorrect
2,new_learn,14,541,D,52.88940463558195,29.284538859887576,2.6444702317790973,0.46000046072993817,A,1590,Correct
2,new_learn,14,542,B,58.736040689998305,82.51019242888842,2.936802034499915,1.2960670719043799,B,1259,Incorrect
2,new_learn,14,543,B,60.49099620560968,85.73674963589333,3.024549810280484,1.3467497139939495,A,1406,Incorrect
2,new_learn,14,544,D,65.40527962772005,40.78943007294,3.2702639813860026,0.6407188693063144,B,853,Incorrect
2,new_learn,14,545,D,54.88961321805894,13.305684011897473,2.744480660902947,0.2090051957138213,A,1574,Incorrect
2,new_learn,14,546,C,92.38436701941527,38.64906166387695,4.619218350970764,0.6070980409568736,C,1004,Incorrect
2,new_learn,14,547,B,35.672574140496245,56.96742619004127,1.7836287070248122,0.8948422380627622,D,1533,Incorrect
2,new_learn,14,548,D,32.06432272837643,5.562489712775758,1.6032161364188215,0.0873753840866256,D,566,Correct
2,new_learn,14,549,D,44.37361590700975,39.46963761933891,2.2186807953504877,0.6199876179238322,A,1079,Incorrect
2,new_learn,14,550,C,82.05115331962453,49.73376948839254,4.102557665981227,0.781216224300311,C,1845,Correct
2,new_learn,14,551,A,34.38287744485774,73.70225970771453,1.7191438722428871,1.1577123882536149,B,1240,Incorrect
2,new_learn,14,552,B,66.60558747817421,94.11869209621857,3.330279373908711,1.4784129582748,B,1940,Incorrect
2,new_learn,14,553,A,20.14638572121232,63.21323687888569,1.007319286060616,0.9929512029416933,A,972,Correct
2,new_learn,14,554,C,94.34393162007305,53.832952664699626,4.717196581003652,0.8456060430623372,A,967,Correct
2,new_learn,14,555,B,41.11374851489574,94.57679735842069,2.0556874257447872,1.485608858906325,D,1566,Incorrect
2,new_learn,14,556,D,49.834732513946975,18.704845117151166,2.4917366256973486,0.29381502003288507,A,1238,Incorrect
2,new_learn,14,557,B,63.011375514089195,75.48590917109807,3.1505687757044596,1.1857298885073404,A,1174,Incorrect
2,new_learn,14,558,C,61.60997494236956,58.74763366846173,3.0804987471184777,0.9228056717431189,B,4844,Incorrect
2,new_learn,14,559,A,49.61840261885775,44.47825025587215,2.4809201309428874,0.6986627212418814,B,1183,Incorrect
2,new_learn,14,560,D,42.36814459844938,21.476057901465925,2.1184072299224694,0.3373451286565719,A,2926,Incorrect
2,new_learn,14,561,A,2.7081375009014543,44.74229629856917,0.1354068750450727,0.7028103467816135,A,3166,Correct
2,new_learn,14,562,B,71.90065216748715,89.86272454809642,3.5950326083743573,1.4115603763593145,B,1107,Incorrect
2,new_learn,14,563,A,36.66652280690666,66.4605026485757,1.8333261403453331,1.043959134373252,D,1815,Incorrect
2,new_learn,14,564,D,40.06746957079627,34.66790515614108,2.0033734785398134,0.5445621807694027,C,1628,Correct
2,new_learn,14,565,C,93.85945071717514,55.949457186249134,4.692972535858757,0.8788520183432849,C,581,Correct
2,new_learn,14,566,A,14.551705126459538,38.93866514167354,0.7275852563229769,0.6116471217483727,C,1029,Incorrect
2,new_learn,14,567,A,27.546885400828582,58.586931697180624,1.3773442700414291,0.9202813710811482,B,1317,Incorrect
2,new_learn,14,568,D,24.276639484591012,29.846258242753017,1.2138319742295507,0.4688239281628834,C,789,Incorrect
2,new_learn,14,569,B,54.615924593978335,71.64774154615557,2.7307962296989166,1.1254400924385128,A,1357,Incorrect
2,new_learn,14,570,D,45.31474532611199,5.7043530011891015,2.2657372663055995,0.08960376741009285,D,838,Incorrect
2,new_learn,14,571,C,55.83858004670269,40.543421688858245,2.7919290023351344,0.6368545786455507,C,1345,Incorrect
2,new_learn,14,572,C,67.56181709033702,32.07778873293765,3.3780908545168504,0.5038767271340118,C,829,Correct
2,new_learn,14,573,D,37.63774745565487,32.58097682836434,1.8818873727827434,0.5117807872538436,A,2851,Correct
2,new_learn,14,574,D,57.783484134994524,30.160940358018507,2.8891742067497264,0.47376694327055424,A,712,Incorrect
2,new_learn,14,575,C,69.26060590597604,70.72759220967103,3.4630302952988017,1.110986420459986,B,1093,Incorrect
2,new_learn,14,576,C,53.48540987707669,38.93488213465201,2.674270493853834,0.6115876984130361,C,549,Correct
2,new_learn,14,577,B,32.45070156966547,58.1251930267666,1.6225350784832733,0.9130283970068932,B,1311,Incorrect
2,new_learn,14,578,C,85.60084359222157,67.34041368960987,4.280042179611078,1.0577807446848797,C,790,Incorrect
2,new_learn,14,579,B,58.22986729688357,59.07607245045785,2.9114933648441785,0.9279647760664838,C,701,Correct
2,new_learn,14,580,B,46.72913706021952,58.143972323321464,2.336456853010976,0.913323381507375,C,605,Incorrect
2,new_learn,14,581,A,12.048260959206502,71.54003681752489,0.6024130479603251,1.1237482705173978,A,827,Correct
2,new_learn,14,582,D,57.43039332998704,41.166365170608024,2.8715196664993523,0.6466397519748844,A,798,Incorrect
2,new_learn,14,583,B,74.05547161901183,72.10414010099703,3.7027735809505913,1.1326091841735075,C,1197,Incorrect
2,new_learn,14,584,A,37.87646631862204,51.33469282163823,1.8938233159311022,0.8063634692137367,B,453,Incorrect
2,new_learn,14,585,C,71.4670812110165,40.8913591786485,3.5733540605508254,0.6423199679547184,D,902,Incorrect
2,new_learn,14,586,A,19.750680688907703,30.47565883082285,0.9875340344453852,0.47871052948110987,A,539,Correct
2,new_learn,14,587,B,67.87091588037987,89.62196426820061,3.3935457940189933,1.40777852272633,B,996,Incorrect
2,new_learn,14,588,B,63.88557853021489,83.45663442254624,3.1942789265107443,1.3109337479760017,C,334,Correct
2,new_learn,14,589,C,93.66142060137787,34.9814294579359,4.683071030068893,0.5494870089856051,C,695,Incorrect
2,new_learn,14,590,A,39.813073065726954,35.03145228263861,1.9906536532863475,0.5502727656785942,A,486,Incorrect
2,new_learn,14,591,C,52.866022440499364,60.63573113175386,2.643301122024968,0.9524638373428193,D,564,Incorrect
2,new_learn,14,592,A,23.992007965059546,30.364639994489902,1.1996003982529773,0.4769666496779415,B,476,Incorrect
2,new_learn,14,593,B,36.24419652842721,68.75249234870016,1.8122098264213604,1.0799616243933245,D,527,Incorrect
2,new_learn,14,594,A,0.3940026120919491,47.946613391263,0.019700130604597455,0.7531436419725092,C,1983,Incorrect
2,new_learn,14,595,A,11.452000023046766,43.86959671085178,0.5726000011523383,0.6891020137137945,A,701,Incorrect
2,new_learn,14,596,B,70.26319223239067,73.50788378000779,3.5131596116195336,1.1546591383210238,A,839,Incorrect
2,new_learn,14,597,B,65.58210718082583,59.94636147076236,3.2791053590412913,0.9416352440299264,C,478,Incorrect
2,new_learn,14,598,B,40.81030506993183,55.41792735049788,2.0405152534965914,0.870502767207485,B,531,Incorrect
2,new_learn,14,599,D,36.3944325477108,46.33187275482545,1.81972162738554,0.7277793553680837,D,375,Incorrect
2,new_learn,14,600,B,1.8877379357237487,60.656475467374264,0.09438689678618743,0.9527896886047625,A,1196,Incorrect
2,new_learn,14,601,C,47.48189880380492,75.01463499317795,2.3740949401902456,1.1783271310314385,A,807,Incorrect
2,new_learn,14,602,D,91.90047017692831,68.79998374226513,4.595023508846415,1.0807076174589867,C,917,Incorrect
2,new_learn,14,603,B,2.1151147276335216,42.410596801566335,0.10575573638167608,0.6661840967307979,A,868,Incorrect
2,new_learn,14,604,B,15.70897461707725,41.804996490610336,0.7854487308538625,0.6566713492912426,A,1136,Incorrect
2,new_learn,14,605,B,16.181198551337467,32.90808632913419,0.8090599275668734,0.5169190112765334,A,381,Incorrect
2,new_learn,14,606,C,71.96781800686188,82.21465754914956,3.5983909003430936,1.2914248208690444,A,574,Incorrect
2,new_learn,14,607,A,57.53643170728401,21.066618359967556,2.8768215853642003,0.33091366737826966,A,413,Correct
2,new_learn,14,608,A,60.71531332774028,46.94212025782073,3.035765666387014,0.7373651007294911,A,814,Correct
2,new_learn,14,609,D,68.97586076711504,45.066609635290526,3.4487930383557517,0.7079046487621385,A,514,Incorrect
2,new_learn,14,610,C,61.59805343826031,70.2843684906788,3.0799026719130156,1.1040242785625725,A,640,Incorrect
2,new_learn,14,611,B,20.34493611362387,60.349804320405866,1.0172468056811936,0.9479725094928433,A,773,Incorrect
2,new_learn,14,612,D,82.36262535533974,54.39206248079817,4.118131267766987,0.8543885195163626,C,1038,Incorrect
2,new_learn,14,613,B,48.03619250111187,48.4846777784284,2.4018096250555936,0.7615955376018948,B,582,Correct
2,new_learn,14,614,D,64.23854148271415,58.18451410724955,3.2119270741357075,0.9139602103601343,A,923,Incorrect
2,new_learn,14,615,C,44.82288130283349,61.74742640127501,2.241144065141674,0.9699263058016101,B,524,Incorrect
2,new_learn,14,616,A,52.356689132988905,25.49896907128009,2.617834456649445,0.4005368695422344,C,441,Incorrect
2,new_learn,14,617,B,32.69237967126017,26.29516648594948,1.6346189835630085,0.4130435092858971,D,732,Incorrect
2,new_learn,14,618,C,44.34642782085906,79.4848112548817,2.217321391042953,1.2485444955515383,C,763,Correct
2,new_learn,14,619,C,33.6341892881365,94.51266889959673,1.681709464406825,1.484601531430688,C,959,Correct
2,new_learn,14,620,C,55.68949306162799,85.05128868230797,2.7844746530813995,1.335982518513417,B,1464,Incorrect
2,new_learn,14,621,C,62.944501582298045,56.72659459350096,3.147225079114902,0.8910592641905456,A,1451,Incorrect
2,new_learn,14,622,A,67.62592284826445,30.890921461046702,3.3812961424132224,0.485233459623218,C,566,Incorrect
2,new_learn,14,623,A,49.65637903693015,51.15520755501445,2.4828189518465074,0.8035441212384722,B,516,Incorrect
2,new_learn,14,624,B,15.859475659552517,73.31688003785641,0.7929737829776259,1.1516588585552692,A,1085,Incorrect
2,new_learn,14,625,D,70.17020742784858,68.87503711578,3.508510371392429,1.081886553093294,C,1217,Incorrect
2,new_learn,14,626,A,55.163203570186575,46.16673500543673,2.758160178509329,0.7251853776665339,B,852,Incorrect
2,new_learn,14,627,A,29.052372429801164,21.8011716469627,1.4526186214900583,0.34245200342874055,D,478,Incorrect
2,new_learn,14,628,C,26.585228825863364,75.61151955772485,1.329261441293168,1.1877029718465466,A,519,Incorrect
2,new_learn,14,629,D,78.88292087109154,44.61283628428582,3.9441460435545768,0.7007767936325825,B,581,Incorrect
2,new_learn,14,630,C,53.42344400929434,60.43653624632413,2.6711722004647176,0.9493348913993256,C,405,Correct
2,new_learn,14,631,A,61.397140461686604,10.244170495989488,3.0698570230843303,0.16091505386160943,D,1213,Incorrect
2,new_learn,14,632,A,33.02277642803223,35.13295182072027,1.6511388214016114,0.5518671166944948,A,454,Correct
2,new_learn,14,633,C,32.310738422671974,82.08927598859313,1.6155369211335988,1.2894553319213458,A,997,Incorrect
2,new_learn,14,634,A,39.34337093039915,41.34547413742672,1.9671685465199575,0.6494531890466329,B,523,Incorrect
2,new_learn,14,635,D,68.67188941261286,57.06704056530313,3.433594470630643,0.8964069770103352,D,737,Correct
2,new_learn,14,636,D,66.4025963960635,54.3288136291609,3.320129819803175,0.8533950088781045,D,693,Correct
2,new_learn,14,637,C,46.59584574107335,66.22871026786639,2.3297922870536674,1.0403181481712798,B,902,Incorrect
2,new_learn,14,638,C,44.92052369120273,67.86424041484511,2.2460261845601366,1.0660089956436447,D,524,Incorrect
2,new_learn,14,639,C,63.26200099753488,80.89833384348876,3.163100049876744,1.270748056451794,D,781,Incorrect
2,new_learn,14,640,A,51.04849828576547,31.31213849559205,2.5524249142882733,0.49184992132969074,D,878,Incorrect
2,new_learn,14,641,B,16.685595353475904,74.07360425388694,0.8342797676737952,1.1635454547446442,D,1686,Incorrect
2,new_learn,14,642,D,56.835802530679224,39.589763494290864,2.841790126533961,0.6218745507551078,C,509,Incorrect
2,new_learn,14,643,D,68.96681937174004,39.280135885250786,3.448340968587002,0.6170109316455633,C,743,Incorrect
2,new_learn,14,644,C,37.55671737110983,96.80020263068351,1.8778358685554917,1.5205340272527934,B,760,Incorrect
2,new_learn,14,645,C,41.612664671985314,70.14178830170495,2.080633233599266,1.1017846341914337,A,468,Incorrect
2,new_learn,14,646,D,56.84096187542777,58.04855429964781,2.8420480937713886,0.9118245586964089,D,428,Correct
2,new_learn,14,647,D,64.5856733344586,53.90545274640744,3.22928366672293,0.8467448716827268,C,759,Incorrect
2,new_learn,14,648,A,24.921655588655124,25.799966419733522,1.2460827794327562,0.405264924835491,D,790,Incorrect
2,new_learn,14,649,A,43.956616605969444,20.592092100322496,2.197830830298472,0.3234598263220878,A,540,Correct
2,new_learn,14,650,A,63.326763505305784,40.56097016768631,3.166338175265289,0.6371302295063903,B,1112,Incorrect
2,new_learn,14,651,B,1.5118265174143914,50.5405462694342,0.07559132587071957,0.7938890443423476,D,1902,Incorrect
2,new_learn,14,652,B,10.400359418763792,69.65284818528312,0.5200179709381896,1.0941043808024529,C,910,Incorrect
2,new_learn,14,653,A,34.117755798151094,29.164761143083894,1.7058877899075549,0.45811899675406703,A,691,Correct
2,new_learn,14,654,D,91.13028142565322,45.95674604746679,4.556514071282661,0.721886878828067,C,831,Incorrect
2,new_learn,14,655,C,42.022707048210066,96.6868333171127,2.101135352410503,1.5187532262395107,B,451,Incorrect
2,new_learn,14,656,D,79.78053678161447,69.91447061084395,3.989026839080724,1.0982139362532344,A,1255,Incorrect
2,new_learn,14,657,B,32.92790163649034,53.568550885775515,1.646395081824517,0.8414528296310168,B,981,Correct
2,new_learn,14,658,A,26.271603339598386,19.06079513198658,1.3135801669799192,0.29940626979114565,D,2717,Incorrect
2,new_learn,14,659,B,6.811824188502477,36.31366902809569,0.3405912094251239,0.5704137792177831,C,1689,Incorrect
2,new_learn,14,660,D,70.79816157757828,51.85096485613,3.5399080788789146,0.8144730513678029,B,814,Incorrect
2,new_learn,14,661,C,45.36818775178207,98.15697892576094,2.2684093875891036,1.5418462194586933,D,1004,Incorrect
2,new_learn,14,662,B,35.65473949720495,66.21355798782228,1.7827369748602475,1.040080136712921,A,783,Incorrect
2,new_learn,14,663,D,52.071174219908585,59.663629581988666,2.6035587109954292,0.9371941019063913,B,1019,Incorrect
2,new_learn,14,664,B,21.07689525734589,70.3704070152175,1.0538447628672944,1.1053757685456547,C,630,Incorrect
2,new_learn,14,665,D,58.60232712338,43.3538668777928,2.930116356169,0.6810009484399185,A,1420,Incorrect
2,new_learn,14,666,B,2.6082641748052247,44.17892156960041,0.13041320874026124,0.6939608772328815,B,2110,Correct
2,new_learn,14,667,B,13.362350482609779,63.55357190587565,0.668117524130489,0.998297173044448,C,902,Incorrect
2,new_learn,14,668,C,33.35123952952504,62.48286297959674,1.667561976476252,0.9814785165597938,B,1423,Incorrect
2,new_learn,14,669,C,29.402509112134222,77.34044939928562,1.470125455606711,1.214860938290644,D,1311,Incorrect
2,new_learn,14,670,C,63.08159244782495,59.26928872535927,3.1540796223912473,0.9309998102154051,B,437,Incorrect
2,new_learn,14,671,A,40.98762779911419,25.967835008866576,2.04938138995571,0.40790179846743535,D,651,Incorrect
2,new_learn,14,672,C,44.14070624537061,48.95137949934001,2.2070353122685304,0.7689264710910628,C,829,Correct
2,new_learn,14,673,D,96.7644917700959,37.7815294915869,4.838224588504795,0.5934708774607776,C,705,Incorrect
2,new_learn,14,674,D,52.20909934199304,52.89258472572537,2.6104549670996517,0.8308347780185728,C,965,Incorrect
2,new_learn,14,675,D,90.4686991190303,42.28980792848891,4.523434955951515,0.6642867495493208,A,995,Incorrect
2,new_learn,14,676,C,49.34909786781724,93.46697296600722,2.467454893390862,1.4681757781164204,B,951,Incorrect
2,new_learn,14,677,C,38.06775953923994,77.31913623655387,1.903387976961997,1.2145261519133301,C,505,Correct
2,new_learn,14,678,D,61.21313162743364,33.988227524182086,3.060656581371682,0.5338858294925443,B,2426,Incorrect
2,new_learn,14,679,D,52.21749736728468,60.20438908582838,2.610874868364234,0.9456883323294998,C,1053,Incorrect
2,new_learn,14,680,A,48.0918049434272,-0.4042994044785644,2.40459024717136,-0.006350720194802931,D,1056,Incorrect
2,new_learn,14,681,C,26.2406481780257,67.37508057758019,1.3120324089012851,1.0583252908877314,B,956,Incorrect
2,new_learn,14,682,C,48.46601972704789,86.86820351900613,2.4233009863523947,1.364522550029263,C,413,Correct
2,new_learn,14,683,A,48.66655364563495,1.5070108906648159,2.433327682281748,0.02367207171496198,C,1054,Incorrect
2,new_learn,14,684,D,56.33586564669829,37.28666475777956,2.8167932823349147,0.5856975603995286,A,576,Incorrect
2,new_learn,14,685,B,9.306062524503536,68.98267464008708,0.46530312622517683,1.0835773193713625,B,1043,Correct
2,new_learn,14,686,D,61.482420761854485,50.752502243200674,3.0741210380927244,0.7972184409926938,C,752,Incorrect
2,new_learn,14,687,C,72.75474061706781,62.06739206149078,3.6377370308533905,0.9749523146392844,B,483,Incorrect
2,new_learn,14,688,C,50.2524216008314,80.14983490236155,2.5126210800415696,1.258990662578469,D,566,Incorrect
2,new_learn,14,689,A,41.207772330246144,31.261235818866957,2.060388616512307,0.4910503439534527,A,437,Correct
2,new_learn,14,690,D,79.40932861480925,42.691011961375,3.970466430740463,0.6705888477608484,C,886,Incorrect
2,new_learn,14,691,B,28.228462545071196,67.03324868839576,1.4114231272535596,1.0529558081286086,B,683,Correct
2,new_learn,14,692,B,30.67436957403185,56.58282270396568,1.5337184787015925,0.8888009006307619,B,973,Correct
2,new_learn,14,693,D,82.93687559772471,56.181579195330116,4.146843779886235,0.8824981823356112,B,654,Incorrect
2,new_learn,14,694,C,61.64616173731399,60.25859246749725,3.0823080868657,0.9465397570577528,B,999,Incorrect
2,new_learn,14,695,D,65.82674272780338,44.831438572757655,3.291337136390169,0.7042105903501877,C,855,Incorrect
2,new_learn,14,696,A,32.8981142679488,7.807131065084864,1.64490571339744,0.12263412799841632,A,1149,Correct
2,new_learn,14,697,B,29.827128457827893,46.73605258950111,1.4913564228913947,0.7341281973648145,A,891,Incorrect
2,new_learn,14,698,D,91.82156437341423,61.068701799243605,4.591078218670711,0.9592649246838475,B,864,Incorrect
2,new_learn,14,699,C,65.26507405043066,60.91708268044236,3.2632537025215327,0.9568832971349988,C,693,Correct
2,new_learn,14,700,A,36.283310939538765,43.625945068003915,1.8141655469769382,0.6852747426577648,C,731,Incorrect
2,new_learn,14,701,A,58.09985304080037,42.57540643913328,2.9049926520400184,0.6687729204639035,B,1127,Incorrect
2,new_learn,14,702,A,56.41772200788028,6.303526635041418,2.8208861003940138,0.09901556484176853,D,415,Incorrect
2,new_learn,14,703,D,83.19780569467753,49.520785987238995,4.159890284733876,0.777870687287512,C,974,Incorrect
2,new_learn,14,704,B,32.093720834464584,52.96700960061386,1.6046860417232294,0.8320038412195429,B,627,Correct
2,new_learn,14,705,A,52.04865856948605,31.14314373805273,2.6024329284743026,0.48919535788578705,C,1143,Incorrect
2,new_learn,14,706,B,28.03935463446384,39.96474516454873,1.4019677317231922,0.6277647490576725,B,684,Correct
2,new_learn,14,707,C,56.04917446485975,62.37053491762923,2.802458723242988,0.9797140714884482,B,446,Incorrect
2,new_learn,14,708,D,74.88722289274925,56.83623385687655,3.7443611446374625,0.8927814737123742,C,1197,Incorrect
2,new_learn,14,709,B,16.540925118606545,69.96916401351363,0.8270462559303272,1.0990730582133688,A,1173,Incorrect
2,new_learn,14,710,A,50.01610406060867,46.35057423257611,2.500805203030433,0.7280731174936472,C,689,Incorrect
2,new_learn,14,711,C,57.525685353492534,62.81268228135727,2.8762842676746265,0.9866593060369087,D,373,Incorrect
2,new_learn,14,712,D,72.48510483368273,28.626072103070694,3.6242552416841365,0.44965728910069297,A,324,Incorrect
2,new_learn,14,713,C,34.81111807949338,81.34549842880314,1.7405559039746692,1.27777210133264,B,679,Incorrect
2,new_learn,14,714,A,66.14143555090692,11.02215392731774,3.307071777545346,0.1731355890239865,C,494,Incorrect
2,new_learn,14,715,C,43.65608866673327,95.29440735964113,2.1828044333366634,1.4968810504462084,D,1164,Incorrect
2,new_learn,14,716,A,63.09726325878145,29.803684176101207,3.154863162939073,0.46815517628774955,B,975,Incorrect
2,new_learn,14,717,A,51.863708318577544,51.31868932848056,2.593185415928877,0.8061120869310571,A,454,Correct
2,new_learn,14,718,A,37.327479929938235,28.059996203642925,1.866373996496912,0.4407653896656105,A,926,Correct
2,new_learn,14,719,D,80.92446922612054,54.60185271703685,4.046223461306027,0.8576838968411742,C,1357,Incorrect
2,new_learn,14,720,B,46.71038827739524,42.56541811700768,2.3355194138697617,0.668616024266846,A,431,Incorrect
2,new_learn,14,721,D,86.19022455234284,27.380479260615786,4.309511227617142,0.4300915624845912,B,420,Incorrect
2,new_learn,14,722,A,73.24132141184357,34.29430872088641,3.6620660705921786,0.5386937416873857,D,551,Incorrect
2,new_learn,14,723,B,24.974494342942734,59.631407125506,1.2487247171471367,0.9366879527435584,C,231,Incorrect
2,new_learn,14,724,B,17.637205040285597,41.645299313284944,0.8818602520142798,0.6541628318958201,A,669,Incorrect
2,new_learn,14,725,A,43.76466348117858,11.313210776942542,2.188233174058929,0.17770749932677782,B,533,Incorrect
2,new_learn,14,726,D,74.40026592429597,54.05634191609765,3.7200132962147983,0.849115033217752,C,622,Incorrect
2,new_learn,14,727,A,42.356673232053915,45.848990241520355,2.117833661602696,0.7201942545863523,D,525,Incorrect
2,new_learn,14,728,B,36.00222521876047,74.22135029849179,1.8001112609380236,1.1658662441862822,B,660,Correct
2,new_learn,14,729,B,38.74674178886947,32.784202494393895,1.9373370894434736,0.5149730485509402,C,830,Incorrect
2,new_learn,14,730,C,43.17289753942017,71.55102822092861,2.1586448769710085,1.1239209230783267,A,453,Incorrect
2,new_learn,14,731,D,60.090267510221366,39.802582554527696,3.0045133755110682,0.6252175047360274,C,222,Incorrect
2,new_learn,14,732,D,86.7549219594813,69.53146978949137,4.3377460979740645,1.0921977734198336,B,430,Incorrect
2,new_learn,14,733,C,75.57311989379703,77.99102298174185,3.778655994689851,1.2250801242269647,D,622,Incorrect
2,new_learn,14,734,B,41.592360286917106,30.872834456655593,2.0796180143458556,0.48494934962261527,B,301,Correct
2,new_learn,14,735,D,87.30930008498855,51.340515801387596,4.365465004249427,0.8064549363657497,C,999,Incorrect
2,new_learn,14,736,A,42.46363429691008,20.950535148257355,2.123181714845504,0.32909023655270025,B,647,Incorrect
2,new_learn,14,737,B,15.983476028990857,25.974126572623454,0.7991738014495428,0.40800062611982646,A,778,Incorrect
2,new_learn,14,738,A,37.93755667798537,38.00936147446415,1.8968778338992685,0.5970496538790774,D,1173,Incorrect
2,new_learn,14,739,A,63.044966196720935,41.197802701563575,3.1522483098360463,0.6471335715563693,B,422,Incorrect
2,new_learn,14,740,D,84.43714745767434,46.73079532411886,4.221857372883717,0.7340456164333002,C,2111,Incorrect
2,new_learn,14,741,D,56.19808259841437,60.458336814101095,2.8099041299207186,0.9496773339171866,B,685,Incorrect
2,new_learn,14,742,C,67.26759045739878,81.17883196684085,3.3633795228699395,1.2751541106701374,A,710,Incorrect
2,new_learn,14,743,A,64.66106221788273,24.180992162387657,3.2330531108941365,0.3798341366693472,C,668,Incorrect
2,new_learn,14,744,C,40.401429865362594,83.78477914386718,2.0200714932681296,1.3160882332050823,B,1342,Incorrect
2,new_learn,14,745,D,91.57412401740875,42.74106685950379,4.578706200870437,0.6713751082620364,B,2941,Incorrect
2,new_learn,14,746,D,54.98427345619196,43.2232844270769,2.7492136728095975,0.6789497641006343,D,742,Correct
2,new_learn,14,747,D,71.07502468306804,48.211738378376886,3.5537512341534017,0.7573082155315096,C,718,Incorrect
2,new_learn,14,748,C,56.317973940760055,86.03786525850525,2.8158986970380027,1.351479627133343,D,950,Incorrect
2,new_learn,14,749,D,71.75830364636334,58.92369445014472,3.5879151823181674,0.9255712280347216,A,524,Incorrect
2,new_learn,14,750,C,30.392532487924157,82.55126347268586,1.5196266243962078,1.2967122143517267,B,1054,Incorrect
2,new_learn,14,751,B,3.7550184631965244,47.74350517962591,0.18775092315982622,0.7499532256446951,B,1805,Correct
2,new_learn,14,752,C,68.18658284138107,64.09429675013835,3.4093291420690535,1.006790859036194,C,4517,Correct
2,new_learn,14,753,C,68.53434115293406,66.63382720687731,3.4267170576467034,1.0466817101684873,A,383,Incorrect
2,new_learn,14,754,D,96.76507673281112,43.07537318546083,4.838253836640556,0.6766263797504126,B,516,Incorrect
2,new_learn,14,755,D,81.41197336825691,26.93901346733495,4.0705986684128455,0.4231570340196798,C,470,Incorrect
2,new_learn,14,756,B,49.19890747422224,61.4110575817718,2.459945373711112,0.9646426367403702,D,309,Incorrect
2,new_learn,14,757,B,29.29778296039676,53.41534697185344,1.464889148019838,0.8390463081786229,B,438,Correct
2,new_learn,14,758,A,55.21640600209382,27.18021807411448,2.760820300104691,0.4269458671230329,C,692,Incorrect
2,new_learn,14,759,B,10.048165840892104,39.93111393930135,0.5024082920446051,0.6272364710068304,A,525,Incorrect
2,new_learn,14,760,B,33.9754845610056,54.64718572001962,1.69877422805028,0.8583959859868535,B,350,Correct
2,new_learn,14,761,C,51.06543798236434,97.64159438856363,2.553271899118217,1.5337505780795295,C,1868,Correct
2,new_learn,14,762,D,93.8517049132685,47.188178528379936,4.692585245663426,0.7412301750052099,B,1311,Incorrect
2,new_learn,14,763,C,32.89890933253912,69.98789923444942,1.644945466626956,1.099367350375645,A,1020,Incorrect
2,new_learn,14,764,D,59.618070192948664,44.74167037570397,2.9809035096474332,0.7028005148082384,D,750,Correct
2,new_learn,14,765,B,12.362113033072974,26.794431308224272,0.6181056516536487,0.42088594277516866,D,1276,Incorrect
2,new_learn,14,766,B,39.14501838810065,33.17787455291172,1.9572509194050327,0.5211568347857559,C,430,Incorrect
2,new_learn,14,767,D,75.52413015106112,70.90466316477325,3.7762065075530558,1.1137678445185524,B,998,Incorrect
2,new_learn,14,768,D,89.86538214849426,41.980196246171516,4.493269107424713,0.6594233806161511,B,814,Incorrect
2,new_learn,14,769,D,67.2390464238479,43.60555112029981,3.3619523211923945,0.6849543952763403,C,454,Incorrect
2,new_learn,14,770,D,80.08866496341108,32.06952285001145,4.004433248170554,0.5037468869486299,D,1470,Correct
2,new_learn,14,771,A,61.103075045177945,32.77331023740017,3.055153752258897,0.5148019533781777,A,669,Correct
2,new_learn,14,772,A,28.266688542842367,16.007493626008312,1.4133344271421182,0.25144512188926577,A,599,Correct
2,new_learn,14,773,A,67.09893757459832,42.08154415389973,3.3549468787299164,0.6610153498280295,B,611,Incorrect
2,new_learn,14,774,B,20.482562931449728,44.82708752350979,1.0241281465724865,0.7041422442284251,A,499,Incorrect
2,new_learn,14,775,C,56.89743299565682,51.805796658930475,2.8448716497828412,0.8137635509853131,C,557,Correct
2,new_learn,14,776,B,47.05346453151138,56.595705990965946,2.352673226575569,0.8890032708297323,D,966,Incorrect
2,new_learn,14,777,A,41.18836339964387,36.00180564615438,2.059418169982193,0.5655150406696307,C,556,Incorrect
2,new_learn,14,778,C,53.961220797422776,74.709689784243,2.698061039871139,1.1735370628907509,B,269,Incorrect
2,new_learn,14,779,D,72.56349092573106,62.48946938725612,3.628174546286553,0.9815822897686406,A,636,Incorrect
2,new_learn,14,780,A,46.79132371878257,34.81165594598893,2.3395661859391286,0.5468202128960714,C,257,Incorrect
2,new_learn,14,781,B,8.887582107193488,45.87291452901916,0.4443791053596744,0.7205700564155955,D,924,Incorrect
2,new_learn,14,782,D,66.46609026868443,51.23103602249343,3.323304513434221,0.8047352320202971,B,789,Incorrect
2,new_learn,14,783,D,70.9712581889251,55.78986305223353,3.548562909446255,0.8763451195483876,C,447,Incorrect
2,new_learn,14,784,D,70.48865246603974,55.57811568890519,3.524432623301987,0.8730189997431408,A,643,Incorrect
2,new_learn,14,785,C,51.66021694429281,57.62076283371455,2.5830108472146405,0.9051048260631872,C,132,Correct
2,new_learn,14,786,C,26.745052171966464,70.5111636010769,1.337252608598323,1.1075867678260563,D,854,Incorrect
2,new_learn,14,787,D,63.67116919452814,57.84567183812557,3.183558459726407,0.9086376884431064,B,574,Incorrect
2,new_learn,14,788,C,51.44612825185596,69.8928609747245,2.5723064125927984,1.0978744928828361,C,549,Correct
2,new_learn,14,789,B,28.939042712020612,62.46642150517347,1.4469521356010306,0.9812202544834822,C,1247,Incorrect
2,new_learn,14,790,D,61.318948915768246,48.83198399531626,3.0659474457884124,0.7670510108994996,C,492,Incorrect
2,new_learn,14,791,D,73.67411435768187,49.549129442244976,3.6837057178840937,0.7783159052376327,A,390,Incorrect
2,new_learn,14,792,D,73.44263243398193,32.04140280449367,3.6721316216990965,0.5033051783065435,C,532,Incorrect
2,new_learn,14,793,D,84.60089825951114,66.83087811288287,4.230044912975557,1.0497769785619389,C,896,Incorrect
2,new_learn,14,794,D,91.8058779294131,34.10772876147797,4.590293896470655,0.5357629505384625,C,501,Incorrect
2,new_learn,14,795,B,42.30494518400302,38.17448166610146,2.115247259200151,0.599643355784113,B,692,Correct
2,new_learn,14,796,D,83.486796772155,62.027418806631516,4.17433983860775,0.9743244162202547,B,878,Incorrect
2,new_learn,14,797,D,82.28578705423416,70.65855695767999,4.114289352711708,1.1099020172575171,B,844,Incorrect
2,new_learn,14,798,B,49.431508343656965,47.637385655156336,2.4715754171828483,0.7482863040523147,D,404,Incorrect
2,new_learn,14,799,B,15.451419658480505,50.333829261446006,0.7725709829240253,0.7906419411740085,A,458,Incorrect
2,new_learn,14,800,B,34.827565418971325,29.39740700923008,1.7413782709485661,0.46177338947393154,C,442,Incorrect
2,new_learn,14,801,B,39.706131033768315,50.923530758833934,1.9853065516884159,0.7999049506340328,B,398,Correct
2,new_learn,14,802,A,55.17087974080779,26.90032026598221,2.7585439870403894,0.42254924263411164,B,830,Incorrect
2,new_learn,14,803,B,5.241369624978567,35.4163878945901,0.26206848124892834,0.5563193201316536,B,2229,Correct
2,new_learn,14,804,A,49.18331382660811,8.178487789126716,2.4591656913304054,0.1284673857789716,C,605,Incorrect
2,new_learn,14,805,B,46.549823150045626,51.40099414319208,2.327491157502281,0.8074049279373211,D,765,Incorrect
2,new_learn,14,806,A,37.532012585958356,3.91487107151071,1.8766006292979176,0.06149465099004624,A,351,Correct
2,new_learn,14,807,B,33.580424602532645,52.26398849341958,1.6790212301266323,0.8209608114911423,B,453,Correct
2,new_learn,14,808,D,95.4328082247295,59.58052782748545,4.771640411236475,0.9358887425991526,C,1344,Incorrect
2,new_learn,14,809,B,20.481244444289345,68.32216574637407,1.0240622222144673,1.073202069930765,D,845,Incorrect
2,new_learn,14,810,A,55.05068996128143,13.176440690420115,2.7525344980640716,0.20697504636742725,A,488,Correct
2,new_learn,14,811,B,20.87637497682847,68.08992817290718,1.0438187488414234,1.0695540906573093,B,492,Correct
2,new_learn,14,812,B,26.557516101443635,65.80779808368521,1.3278758050721817,1.0337064750431297,B,627,Correct
2,new_learn,14,813,D,62.39601390821423,46.13311332818289,3.1198006954107114,0.7246572495952236,A,1257,Incorrect
2,new_learn,14,814,A,48.41872627273337,17.41458587783042,2.420936313636669,0.273547675295503,D,539,Incorrect
2,new_learn,14,815,A,40.984936516293935,18.625633055645782,2.0492468258146967,0.29257075988038,C,760,Incorrect
2,new_learn,14,816,B,20.153150136552007,44.1665845758682,1.0076575068276004,0.6937670881884991,B,499,Correct
2,new_learn,14,817,C,47.82481651595292,66.71956329547392,2.391240825797646,1.0480284494989005,C,703,Correct
2,new_learn,14,818,C,65.16474313061657,96.460075529352,3.2582371565308286,1.5151913232386438,A,1103,Incorrect
2,new_learn,14,819,B,29.738552546212418,34.288016553540075,1.486927627310621,0.5385949045538335,B,1212,Correct
2,new_learn,14,820,A,65.61460596725098,11.44800574983929,3.2807302983625495,0.1798248538097441,D,916,Incorrect
2,new_learn,14,821,C,25.42867784770224,84.14141367937644,1.2714338923851118,1.3216902353889437,B,776,Incorrect
2,new_learn,14,822,C,68.00479518353127,72.86547483037204,3.4002397591765634,1.1445682021371437,C,852,Correct
2,new_learn,14,823,B,31.274089640393193,36.952310153893606,1.5637044820196595,0.5804455305632183,B,446,Correct
2,new_learn,14,824,A,49.7147687032778,35.24413023096275,2.48573843516389,0.5536135030787727,D,600,Incorrect
2,new_learn,14,825,B,15.950367648067896,66.87739933065603,0.7975183824033948,1.0505077321418999,B,756,Correct
2,new_learn,14,826,A,69.46282514451129,20.160222749971112,3.473141257225564,0.3166760384302153,A,405,Correct
2,new_learn,14,827,B,32.581747329414,58.506003223366655,1.6290873664707,0.9190101495871472,A,448,Incorrect
2,new_learn,14,828,A,58.40194051635258,36.07017968962366,2.920097025817629,0.5665890576329272,B,422,Incorrect
2,new_learn,14,829,D,80.42191029237567,41.51104081941242,4.021095514618784,0.6520539044056605,C,709,Incorrect
2,new_learn,14,830,B,32.76146057100273,63.141628228165914,1.6380730285501364,0.9918263768865198,D,1005,Incorrect
2,new_learn,14,831,A,49.21278771545663,30.972353661701142,2.460639385772831,0.48651259363992616,B,660,Incorrect
2,new_learn,14,832,B,34.78572839674666,55.679058815311485,1.7392864198373332,0.8746046106648829,C,647,Incorrect
2,new_learn,14,833,D,95.73814356971616,58.86542961721141,4.786907178485808,0.9246560061791921,A,1236,Incorrect
2,new_learn,14,834,A,26.59177010034711,20.983388376434178,1.3295885050173555,0.32960629385413537,B,1044,Incorrect
2,new_learn,14,835,C,47.77520322328094,76.25634262627793,2.388760161164047,1.1978318289217047,D,384,Incorrect
2,new_learn,14,836,D,65.76556770531035,26.5530227271605,3.2882783852655173,0.41709390565125115,C,684,Incorrect
2,new_learn,14,837,B,39.878458697457326,34.244329253185676,1.9939229348728662,0.5379086660445909,B,584,Correct
2,new_learn,14,838,A,24.579206597977592,21.57144340122457,1.2289603298988796,0.33884344058307564,C,571,Incorrect
2,new_learn,14,839,A,53.36564147372876,32.13005882280286,2.668282073686438,0.5046977837856269,B,597,Incorrect
2,new_learn,14,840,A,40.68722562371323,19.214156462169086,2.0343612811856615,0.30181526393237623,B,734,Incorrect
2,new_learn,14,841,D,84.52454218368936,62.420247212571645,4.226227109184468,0.9804949503913691,C,777,Incorrect
2,new_learn,14,842,B,3.7792022013440523,50.91302766146656,0.18896011006720262,0.7997399683663864,A,324,Incorrect
2,new_learn,14,843,A,43.692654967341824,23.71812355745461,2.184632748367091,0.37256341362517204,D,2108,Incorrect
2,new_learn,14,844,D,82.1113503342979,46.75370119662527,4.105567516714895,0.7344054210372513,A,1958,Incorrect
2,new_learn,14,845,D,63.394669157643406,52.759115092636904,3.1697334578821703,0.8287382419246324,D,1199,Correct
2,new_learn,14,846,D,72.89967730288191,63.10845411880889,3.644983865144096,0.9913052791952927,D,551,Correct
2,new_learn,14,847,D,96.44540866862992,56.20127419754904,4.822270433431496,0.8828075507070284,D,635,Correct
2,new_learn,14,848,A,34.34343163882982,29.990620454104658,1.717171581941491,0.47109156447607486,B,1077,Incorrect
2,new_learn,14,849,B,44.4122421886498,50.499346946669085,2.2206121094324898,0.7932418868936888,B,1782,Correct
2,new_learn,14,850,A,53.16475053081403,13.157306728676788,2.658237526540702,0.20667449079919278,C,567,Incorrect
2,new_learn,14,851,D,80.43602471693484,75.50154859062907,4.021801235846742,1.1859755519348656,D,541,Correct
2,new_learn,14,852,B,25.832455930791607,54.184591911458234,1.2916227965395803,0.8511295794339904,B,685,Correct
2,new_learn,14,853,C,42.13683021636806,64.05747642984241,2.106841510818403,1.006212486797471,B,655,Incorrect
2,new_learn,14,854,A,66.82190715341217,40.96063389370323,3.3410953576706084,0.6434081326341958,B,773,Incorrect
2,new_learn,14,855,C,37.33004909847021,95.41181643882967,1.8665024549235107,1.4987253079494258,A,1678,Incorrect
2,new_learn,14,856,C,59.63402916658731,76.04140744903506,2.9817014583293657,1.1944556350525837,C,879,Correct
2,new_learn,14,857,A,43.761365611600574,7.953405705653303,2.188068280580029,0.1249318046794978,D,429,Incorrect
2,new_learn,14,858,A,50.541144181015696,43.56414910551197,2.527057209050785,0.6843040539488339,B,397,Incorrect
2,new_learn,14,859,B,10.317483371966715,47.65896954053569,0.5158741685983358,0.7486253429310332,B,2325,Correct
2,new_learn,14,860,D,78.04974090566763,26.915809103807074,3.9024870452833818,0.42279254072972794,C,1047,Incorrect
2,new_learn,14,861,B,39.27138646690055,62.43891084436175,1.9635693233450275,0.9807881180339747,B,804,Correct
2,new_learn,14,862,A,68.55053844914842,31.535651597512345,3.427526922457421,0.49536085692456006,D,861,Incorrect
2,new_learn,14,863,A,47.71934711480204,-1.5514857075103308,2.385967355740102,-0.024370680504320088,C,797,Incorrect
2,new_learn,14,864,D,64.09216298671512,71.69876784475215,3.2046081493357566,1.126241611662567,C,1730,Incorrect
2,new_learn,14,865,D,71.27194365646268,48.4696203633304,3.563597182823134,0.7613590162786251,D,469,Correct
2,new_learn,14,866,B,-0.9457589284152164,54.797858086849914,-0.04728794642076082,0.8607627419905185,D,1396,Incorrect
2,new_learn,14,867,C,57.13627162178979,65.78207718648173,2.8568135810894892,1.0333024521346386,C,1668,Correct
2,new_learn,14,868,B,17.29809469045287,47.41703621359495,0.8649047345226435,0.7448250631181554,B,1053,Correct
2,new_learn,14,869,C,48.5096333826526,72.33748006573867,2.42548166913263,1.1362744797686135,C,941,Correct
2,new_learn,14,870,B,27.92468310054929,61.07923186388888,1.3962341550274646,0.9594303305525045,B,735,Correct
2,new_learn,14,871,D,87.4951406843943,59.75635058166866,4.374757034219715,0.9386505599635322,D,613,Correct
2,new_learn,14,872,B,2.3344998441243483,35.67561961449141,0.11672499220621742,0.5603913224657506,A,981,Incorrect
2,new_learn,14,873,C,50.48258249204366,89.9182592253199,2.524129124602183,1.4124327130292382,C,2989,Correct
2,new_learn,14,874,A,61.65624990765466,11.177037903023379,3.082812495382733,0.1755685008251646,D,1391,Incorrect
2,new_learn,14,875,B,25.77040093209737,62.42511197133636,1.2885200466048685,0.9805713658433526,B,501,Correct
2,new_learn,14,876,B,37.579222102839594,27.41554568719334,1.8789611051419797,0.4306423846252097,C,628,Incorrect
2,new_learn,14,877,C,41.32933330691789,85.29282389084447,2.066466665345894,1.3397765446970251,B,631,Incorrect
2,new_learn,14,878,B,38.46016053505112,60.29533360379136,1.9230080267525562,0.9471168854770836,A,588,Incorrect
2,new_learn,14,879,A,42.28597750109209,11.033778467094349,2.1142988750546046,0.17331818686780429,D,831,Incorrect
2,new_learn,14,880,D,57.22441881302427,67.87556011448764,2.8612209406512137,1.0661868050698338,C,941,Incorrect
2,new_learn,14,881,C,29.189629479699157,61.09779445377433,1.459481473984958,0.9597219110325832,B,606,Incorrect
2,new_learn,14,882,B,32.47447749043498,26.68996860601821,1.623723874521749,0.41924504648604505,B,708,Correct
2,new_learn,14,883,D,68.58614274199931,28.88144591367886,3.4293071370999657,0.4536686915373223,C,1374,Incorrect
2,new_learn,14,884,B,51.12871625835797,47.440955486999705,2.5564358129178983,0.7452007861861932,A,1439,Incorrect
2,new_learn,14,885,A,30.809645580127867,19.730821761131523,1.5404822790063935,0.3099310234703021,B,908,Incorrect
2,new_learn,14,886,B,22.81369695336594,66.98085246538812,1.140684847668297,1.0521327701822256,B,520,Correct
2,new_learn,14,887,B,42.970730682006135,33.34638617995226,2.148536534100307,0.5238038092335312,D,1957,Incorrect
2,new_learn,14,888,B,5.2986931701141735,61.949334470525,0.2649346585057087,0.9730978703368914,B,2203,Correct
2,new_learn,14,889,B,34.11863938995685,34.1862848306801,1.7059319694978425,0.536996906387964,B,1150,Correct
2,new_learn,14,890,A,39.0864145442191,32.75577941350006,1.9543207272109553,0.5145265798402978,B,623,Incorrect
2,new_learn,14,891,A,41.46887857181611,4.916813028957481,2.0734439285908057,0.077233118454237,A,1454,Correct
2,new_learn,14,892,A,43.17244320400257,38.718206980689075,2.1586221602001285,0.6081841730535092,B,884,Incorrect
2,new_learn,14,893,C,43.861037516102,55.8231166460495,2.1930518758051,0.8768674657785761,C,1017,Correct
