experiment,condition,subject,trial,cat,x,y,xt,yt,resp,rt,fb
2,relearn,3,0,D,51.233422955958616,20.79691779381803,2.5616711477979313,0.3266772207918478,D,400,Correct
2,relearn,3,1,A,18.613207830572332,40.32031587372783,0.9306603915286167,0.6333500406966164,C,589,Incorrect
2,relearn,3,2,A,6.200538477219688,43.865576479353095,0.3100269238609844,0.6890388640650844,A,659,Correct
2,relearn,3,3,A,28.655574570589348,26.934545152102736,1.4327787285294673,0.42308684588814266,B,1486,Incorrect
2,relearn,3,4,A,11.277656144141458,53.516246216009485,0.563882807207073,0.8406312297995898,C,1544,Incorrect
2,relearn,3,5,B,58.701758688243615,52.127641344083045,2.9350879344121807,0.8188190754776743,A,2036,Incorrect
2,relearn,3,6,D,58.04599924722932,33.31392755976697,2.902299962361466,0.5232939504199322,A,925,Incorrect
2,relearn,3,7,D,24.312888988057427,27.224705209814346,1.2156444494028713,0.4276446694165026,A,1388,Incorrect
2,relearn,3,8,D,34.12301749659345,21.397156142110138,1.7061508748296723,0.33610574271883464,A,767,Incorrect
2,relearn,3,9,B,48.51965312916258,92.67124013199168,2.425982656458129,1.4556764359886034,A,775,Incorrect
2,relearn,3,10,D,28.94508423768441,40.91061038318251,1.4472542118842204,0.6426223651684023,A,617,Incorrect
2,relearn,3,11,C,79.0980834293403,35.46868181802261,3.9549041714670152,0.5571407511600684,A,830,Incorrect
2,relearn,3,12,A,33.154638984283785,63.84890690190325,1.6577319492141893,1.0029362843137895,D,76,Incorrect
2,relearn,3,13,B,70.02731693974103,60.03723362670667,3.501365846987051,0.9430626605175789,C,431,Incorrect
2,relearn,3,14,C,87.94133194612687,27.23380968045698,4.397066597306344,0.42778768210693113,B,1052,Incorrect
2,relearn,3,15,B,50.62624396496613,55.48178508241137,2.5313121982483064,0.8715058421147567,B,917,Correct
2,relearn,3,16,C,64.48388034766455,60.7076081403233,3.224194017383228,0.953592878753238,C,3165,Correct
2,relearn,3,17,B,50.55026975460388,67.63755725981044,2.527513487730194,1.0624482649708973,B,807,Correct
2,relearn,3,18,D,48.2027880648029,38.91814249761324,2.4101394032401453,0.6113247528093123,A,1028,Incorrect
2,relearn,3,19,C,69.48704659933304,44.54514285764573,3.474352329966652,0.6997134677734382,B,1552,Incorrect
2,relearn,3,20,D,43.74334846601456,4.43809633180199,2.187167423300728,0.0697134541595647,A,2922,Incorrect
2,relearn,3,21,D,62.002187585060184,37.46317222741014,3.1001093792530092,0.5884701332490043,C,1199,Incorrect
2,relearn,3,22,D,50.62333313946587,15.899368444746871,2.5311666569732933,0.24974669551367074,B,663,Incorrect
2,relearn,3,23,B,57.14292714780544,74.01160601771944,2.857146357390272,1.1625715887282475,D,4639,Incorrect
2,relearn,3,24,A,1.4362707083159165,47.571896647943845,0.07181353541579583,0.7472576051325664,A,1509,Correct
2,relearn,3,25,A,4.929961007032638,57.76124221800784,0.24649805035163191,0.9073114710715702,A,1007,Correct
2,relearn,3,26,D,43.94667673362013,39.368547014805166,2.1973338366810067,0.6183996904210816,B,1131,Incorrect
2,relearn,3,27,B,40.125992715151575,80.81087099090934,2.006299635757579,1.2693741931761664,B,872,Correct
2,relearn,3,28,C,85.63983886662143,73.0476100331341,4.281991943331072,1.147429175211931,D,989,Incorrect
2,relearn,3,29,A,30.349566615343885,73.88956107891252,1.5174783307671942,1.1606545113124294,D,734,Incorrect
2,relearn,3,30,A,4.227950076582417,36.523926933614575,0.21139750382912084,0.5737165026744696,A,356,Correct
2,relearn,3,31,C,89.84631038274534,64.33717374249156,4.492315519137267,1.0106059619107082,B,1597,Incorrect
2,relearn,3,32,A,23.523837639507658,66.39335555276345,1.176191881975383,1.0429043902586839,B,2893,Incorrect
2,relearn,3,33,C,69.81466739289912,58.95816102090959,3.4907333696449565,0.9261126276622685,C,2662,Correct
2,relearn,3,34,A,7.663942997996145,58.85471519997287,0.38319714989980724,0.9244877045067716,A,662,Correct
2,relearn,3,35,A,24.92399653627904,32.807117689562645,1.2461998268139522,0.5153329995949287,D,1300,Incorrect
2,relearn,3,36,C,62.95645019336394,31.270597022622688,3.147822509668197,0.4911973893981915,B,2043,Incorrect
2,relearn,3,37,C,54.905853527123256,52.894019800809076,2.745292676356163,0.8308573201252744,C,944,Correct
2,relearn,3,38,A,36.50681434917871,28.24318887706283,1.8253407174589356,0.44364297345064774,D,3540,Incorrect
2,relearn,3,39,C,62.38195235964694,60.072691680670566,3.1190976179823466,0.9436196343267967,C,1359,Correct
2,relearn,3,40,D,32.34393987821649,5.514819569634529,1.6171969939108244,0.0866265832291853,B,1175,Incorrect
2,relearn,3,41,D,40.00657322938112,14.645057232015851,2.0003286614690556,0.23004402105751534,C,1766,Incorrect
2,relearn,3,42,A,6.4747841480182196,42.57419569231911,0.32373920740091094,0.6687539020974196,A,766,Correct
2,relearn,3,43,D,59.658996950261376,37.45886554497725,2.9829498475130687,0.5884024840395417,D,1787,Correct
2,relearn,3,44,B,69.38616650717739,87.0407861705778,3.4693083253588695,1.3672334719808366,C,1310,Incorrect
2,relearn,3,45,C,79.57396233392419,63.03980237011025,3.9786981166962097,0.990226900048454,B,1535,Incorrect
2,relearn,3,46,A,35.68467093149239,61.70760200838747,1.7842335465746197,0.969300745700964,B,1118,Incorrect
2,relearn,3,47,A,38.17496456314096,32.27772690414663,1.9087482281570483,0.5070173485832234,D,827,Incorrect
2,relearn,3,48,A,32.30056755473097,36.299613992482755,1.6150283777365484,0.5701930032346454,B,2486,Incorrect
2,relearn,3,49,A,39.1552246931721,28.499560953556212,1.957761234658605,0.4476700566111335,C,596,Incorrect
2,relearn,3,50,B,63.703882355993244,67.70347203081347,3.185194117799662,1.0634836517726283,C,1524,Incorrect
2,relearn,3,51,B,57.51035777790286,62.873911850379415,2.8755178888951427,0.987621097858021,D,673,Incorrect
2,relearn,3,52,A,25.998291699132565,44.147590058323715,1.299914584956628,0.6934687230046178,B,1163,Incorrect
2,relearn,3,53,A,28.834654517919947,73.61511252083824,1.4417327258959975,1.1563434834432569,B,1383,Incorrect
2,relearn,3,54,A,34.47967718222215,40.47319199899422,1.7239838591111072,0.6357514132568471,C,1126,Incorrect
2,relearn,3,55,B,60.69127695817231,69.59799773055371,3.034563847908615,1.0932427918743333,C,1053,Incorrect
2,relearn,3,56,B,51.5213229129977,89.20810105627524,2.576066145649885,1.4012775745954507,C,845,Incorrect
2,relearn,3,57,C,82.75129580156388,61.057815943009295,4.137564790078194,0.9590939300539787,C,1280,Correct
2,relearn,3,58,A,16.56540342124698,30.536068979546993,0.828270171062349,0.47965944987828,A,795,Correct
2,relearn,3,59,A,27.87787874214316,46.29084443498787,1.3938939371071581,0.7271348840271291,A,503,Correct
2,relearn,3,60,B,62.52824884872646,60.58078800770765,3.126412442436323,0.9516007927684751,C,2279,Incorrect
2,relearn,3,61,C,75.91984942358637,65.49049348878823,3.7959924711793183,1.0287222661217363,C,606,Correct
2,relearn,3,62,B,46.511000966659964,65.03740040336987,2.3255500483329983,1.0216050965790233,D,741,Incorrect
2,relearn,3,63,D,57.390328056030405,28.523617248596608,2.8695164028015205,0.448047932009991,B,902,Incorrect
2,relearn,3,64,C,76.08815306498977,39.076396748615004,3.8044076532494886,0.6138106047710449,B,1949,Incorrect
2,relearn,3,65,D,57.89145445571229,42.08660453847935,2.8945727227856146,0.6610948381631279,B,1418,Incorrect
2,relearn,3,66,B,56.497066809939355,96.83442347717585,2.824853340496968,1.5210715670524935,D,1102,Incorrect
2,relearn,3,67,C,69.68572839598541,52.698102159329174,3.48428641979927,0.8277798530093646,D,1124,Incorrect
2,relearn,3,68,D,67.61502791273675,33.16185575592907,3.3807513956368376,0.5209052121111557,B,559,Incorrect
2,relearn,3,69,D,62.02188818614759,35.99118005444129,3.1010944093073793,0.5653481342653013,C,470,Incorrect
2,relearn,3,70,B,37.73436330926786,96.99229231996185,1.886718165463393,1.5235513650361292,A,622,Incorrect
2,relearn,3,71,D,60.250721104611216,40.51138636330498,3.012536055230561,0.6363513689284832,B,430,Incorrect
2,relearn,3,72,B,27.748275558429278,60.652088930495175,1.3874137779214637,0.9527207850445922,A,654,Incorrect
2,relearn,3,73,C,72.58764209055745,24.620140794048375,3.6293821045278722,0.3867322672446437,B,1406,Incorrect
2,relearn,3,74,D,64.72812518544752,17.950059528773373,3.2364062592723766,0.28195887573546946,B,1509,Incorrect
2,relearn,3,75,A,44.87205119390592,38.93879574330932,2.243602559695296,0.6116491732340704,B,685,Incorrect
2,relearn,3,76,D,59.84512805884673,28.237241476389897,2.9922564029423366,0.4435495518993376,B,686,Incorrect
2,relearn,3,77,B,69.27439453792579,80.64122462746097,3.463719726896289,1.2667093943305783,C,1182,Incorrect
2,relearn,3,78,A,19.681038400020018,43.40585158027333,0.9840519200010008,0.681817522236978,A,652,Correct
2,relearn,3,79,C,60.51302744634879,58.305928193204046,3.0256513723174394,0.9158673783625192,D,1118,Incorrect
2,relearn,3,80,B,30.196060393451177,87.71518810008213,1.509803019672559,1.3778269527173244,A,765,Incorrect
2,relearn,3,81,B,70.12017781645667,76.87207157936224,3.506008890822834,1.2075036766997658,C,857,Incorrect
2,relearn,3,82,D,44.04934979577227,40.118978176733975,2.2024674897886136,0.6301874355477833,B,355,Incorrect
2,relearn,3,83,B,63.31806748717869,81.02609602317504,3.1659033743589347,1.2727549400773392,D,1376,Incorrect
2,relearn,3,84,B,27.61930117092092,84.08669218366232,1.380965058546046,1.320830672144299,B,1027,Correct
2,relearn,3,85,B,38.644085423086906,53.63608461988228,1.9322042711543452,0.8425136470457133,B,813,Correct
2,relearn,3,86,D,71.34831713216661,33.39292920939808,3.5674158566083305,0.5245349054304452,D,1287,Correct
2,relearn,3,87,A,37.56568063120663,29.963268341484433,1.8782840315603317,0.47066191849573563,B,533,Incorrect
2,relearn,3,88,B,36.61767841648802,87.7171731836293,1.830883920824401,1.377858134336767,B,3628,Correct
2,relearn,3,89,D,43.78868078499728,25.399404799104772,2.189434039249864,0.39897291761210446,D,1255,Correct
2,relearn,3,90,C,81.75235717471142,32.15454711371,4.0876178587355705,0.5050824449596911,D,2126,Incorrect
2,relearn,3,91,D,50.042911774523354,48.456741960927175,2.502145588726168,0.7611567228067254,C,2003,Incorrect
2,relearn,3,92,C,97.28023797921888,40.00436445649263,4.864011898960944,0.6283870874402294,C,1342,Correct
2,relearn,3,93,A,15.037206308987203,48.74023935985662,0.7518603154493602,0.7656098895356682,A,644,Correct
2,relearn,3,94,B,41.20667555296283,51.549189437192396,2.0603337776481414,0.809732774171961,D,2455,Incorrect
2,relearn,3,95,B,30.85738929223893,88.91910727492301,1.5428694646119465,1.3967380708933042,B,1206,Correct
2,relearn,3,96,D,71.94666758124293,13.624167513876088,3.597333379062147,0.2140079228643492,B,1453,Incorrect
2,relearn,3,97,C,67.45539962015779,53.070167744818285,3.3727699810078895,0.8336242455594955,C,776,Correct
2,relearn,3,98,D,50.37893694608182,23.140732860863668,2.518946847304091,0.36349378177186603,C,1415,Incorrect
2,relearn,3,99,B,55.01665878465375,89.91939086035055,2.7508329392326876,1.4124504887107323,D,1244,Incorrect
2,relearn,3,100,B,35.02365052146844,91.29579781508866,1.751182526073422,1.434071038597508,A,1062,Incorrect
2,relearn,3,101,D,56.99168956425872,18.604308080578814,2.849584478212936,0.29223578795533817,B,3166,Incorrect
2,relearn,3,102,B,32.241083233908775,64.41948773436401,1.6120541616954387,1.0118989470714788,B,1030,Correct
2,relearn,3,103,B,30.63654909198961,82.21393599843616,1.5318274545994806,1.2914134867769425,B,975,Correct
2,relearn,3,104,D,52.786908564276395,35.43792794744426,2.6393454282138196,0.5566576704906765,D,2579,Correct
2,relearn,3,105,C,54.94368411697877,33.320855572922596,2.7471842058489386,0.5234027753961007,D,711,Incorrect
2,relearn,3,106,D,49.64340785242202,12.65219636662289,2.4821703926211014,0.19874023578578973,D,1127,Correct
2,relearn,3,107,C,80.6514023545897,45.32420577093332,4.0325701177294855,0.7119509593987812,C,3735,Correct
2,relearn,3,108,C,51.48708965524885,48.514776593348564,2.5743544827624425,0.7620683286810694,B,3043,Incorrect
2,relearn,3,109,C,83.4708519830264,54.77906641704331,4.173542599151321,0.860467563131453,C,838,Correct
2,relearn,3,110,B,56.66722127446194,70.2098742341619,2.833361063723097,1.1028541255175315,D,2116,Incorrect
2,relearn,3,111,C,83.19885396091614,43.476321085583066,4.159942698045807,0.6829244546378939,C,439,Correct
2,relearn,3,112,B,42.02699593168013,77.923785344414,2.1013497965840067,1.2240239578895948,B,1154,Correct
2,relearn,3,113,C,91.02458602584261,68.88811461856338,4.55122930129213,1.0820919740266517,C,695,Correct
2,relearn,3,114,C,73.7585363964365,25.602781559617302,3.687926819821825,0.4021675522957897,C,1551,Correct
2,relearn,3,115,A,8.840499725820862,36.532765466016706,0.44202498629104314,0.5738553380167848,A,598,Correct
2,relearn,3,116,C,58.530181794561315,42.6334192790755,2.9265090897280657,0.6696841840227852,C,613,Correct
2,relearn,3,117,A,47.57078153951946,49.63556259153989,2.378539076975973,0.7796735939718903,C,863,Incorrect
2,relearn,3,118,D,60.142532493854645,47.902794633681836,3.0071266246927326,0.7524553385379772,C,411,Incorrect
2,relearn,3,119,C,73.46687548729957,23.80830465085296,3.673343774364979,0.3739799749277368,C,575,Correct
2,relearn,3,120,A,3.2280811648586187,60.6784885204674,0.16140405824293094,0.9531354688341648,A,545,Correct
2,relearn,3,121,C,67.37395922058704,43.92995314846051,3.368697961029352,0.6900500904187367,D,914,Incorrect
2,relearn,3,122,D,48.16927021810158,22.692494254735344,2.408463510905079,0.3564528662115257,C,590,Incorrect
2,relearn,3,123,B,60.3558795988103,78.239418892404,3.0177939799405147,1.2289819180675545,C,638,Incorrect
2,relearn,3,124,C,94.39636167201084,49.29776907818521,4.719818083600542,0.7743675458719637,C,623,Correct
2,relearn,3,125,B,67.08727707959771,62.80418453320164,3.3543638539798852,0.98652582372102,B,662,Correct
2,relearn,3,126,C,70.62472608519909,50.18474332109628,3.5312363042599544,0.7883001046992275,C,924,Correct
2,relearn,3,127,C,75.34452751787067,52.41420851331277,3.767226375893534,0.823320462045735,B,549,Incorrect
2,relearn,3,128,C,58.85031524324798,48.61144008228711,2.9425157621623987,0.7635867152146679,B,782,Incorrect
2,relearn,3,129,A,0.0824402984578434,40.53916731087274,0.00412201492289217,0.6367877510324265,A,734,Correct
2,relearn,3,130,B,70.9776134753796,59.344580756894544,3.5488806737689798,0.9321824946811306,D,912,Incorrect
2,relearn,3,131,A,23.94331758734054,49.969272781399965,1.197165879367027,0.7849155013763526,A,915,Correct
2,relearn,3,132,D,35.17976999706393,18.46808069484469,1.7589884998531966,0.29009593318413784,A,879,Incorrect
2,relearn,3,133,D,55.04011818966523,31.581464722980193,2.752005909483261,0.4960804878165989,B,2060,Incorrect
2,relearn,3,134,B,59.574396289531464,53.12575756107398,2.978719814476573,0.8344974483513121,C,552,Incorrect
2,relearn,3,135,A,42.96087412428052,47.21999035835234,2.148043706214026,0.7417298740619028,D,951,Incorrect
2,relearn,3,136,C,79.29195686720652,70.66794023973482,3.964597843360326,1.1100494095073672,C,854,Correct
2,relearn,3,137,A,10.929599254491075,69.54605469787063,0.5464799627245537,1.0924268726249216,A,548,Correct
2,relearn,3,138,A,34.718455703284796,27.230217651078373,1.7359227851642398,0.42773125864139466,A,855,Correct
2,relearn,3,139,C,78.32163571798972,48.985562315825504,3.9160817858994856,0.7694634135168121,C,1172,Correct
2,relearn,3,140,D,63.421756506953606,11.989435773955924,3.17108782534768,0.18832961674073292,B,3096,Incorrect
2,relearn,3,141,C,91.66107510862923,52.216526479170675,4.583053755431462,0.8202152799146974,C,462,Correct
2,relearn,3,142,C,94.56719694946659,47.892307909103685,4.72835984747333,0.7522906134535023,C,661,Correct
2,relearn,3,143,B,49.07957295601687,94.37322093030119,2.4539786478008434,1.4824110878512036,B,1126,Correct
2,relearn,3,144,A,2.7970920041327894,53.67060849751289,0.13985460020663948,0.843055946847402,A,526,Correct
2,relearn,3,145,D,43.330674249574564,42.22169096764143,2.1665337124787283,0.6632167708304042,D,1939,Correct
2,relearn,3,146,B,62.669763549693236,81.7960090816509,3.1334881774846615,1.2848487061193923,C,844,Incorrect
2,relearn,3,147,B,46.902360388968816,92.39271201703119,2.345118019448441,1.4513013265897128,B,671,Correct
2,relearn,3,148,C,76.56702147607703,37.849218247535,3.828351073803851,0.5945341299528634,C,1460,Correct
2,relearn,3,149,A,23.704539531242684,48.60511929208091,1.1852269765621342,0.7634874284742846,A,670,Correct
2,relearn,3,150,D,69.2573045249876,36.00681354076669,3.46286522624938,0.5655937044942506,C,2620,Incorrect
2,relearn,3,151,B,49.65687965597734,87.28581937573985,2.482843982798867,1.3710824445669496,B,1941,Correct
2,relearn,3,152,B,61.606217685398796,63.715050461736055,3.08031088426994,1.0008336722684645,C,1150,Incorrect
2,relearn,3,153,C,73.72384915844412,44.37768403576081,3.686192457922206,0.6970830307503759,C,848,Correct
2,relearn,3,154,C,65.52637159982193,28.27764436011308,3.2763185799910963,0.44418419891278044,D,1005,Incorrect
2,relearn,3,155,A,41.75517069324635,58.87939790331279,2.0877585346623175,0.9248754195041886,B,1741,Incorrect
2,relearn,3,156,D,40.54954090104243,44.41888744954524,2.0274770450521213,0.6977302524606158,C,636,Incorrect
2,relearn,3,157,C,71.40930105992923,58.91114104923948,3.570465052996462,0.9253740396744143,C,645,Correct
2,relearn,3,158,B,45.81668797727127,55.361406044283385,2.2908343988635638,0.8696149326056113,D,581,Incorrect
2,relearn,3,159,B,37.17855515061426,94.90946524424086,1.858927757530713,1.4908343938372146,B,1881,Correct
2,relearn,3,160,C,55.22200859844434,39.791356042333554,2.761100429922217,0.6250411590948546,C,1778,Correct
2,relearn,3,161,D,73.39384163561344,13.399180932304505,3.6696920817806724,0.2104738419052413,B,2327,Incorrect
2,relearn,3,162,A,35.73269152235754,44.106386174696915,1.786634576117877,0.6928214939141112,A,1414,Correct
2,relearn,3,163,D,62.344098918183754,35.93646463492,3.1172049459091875,0.5644886664652704,C,3347,Incorrect
2,relearn,3,164,B,62.83048302508161,94.16286670149218,3.141524151254081,1.479106851351814,B,1320,Correct
2,relearn,3,165,B,47.81845416736619,75.88138522533238,2.3909227083683096,1.1919420118406063,C,709,Incorrect
2,relearn,3,166,A,31.04124239706662,29.696394392405786,1.5520621198533309,0.4664698723064358,D,821,Incorrect
2,relearn,3,167,A,6.9661780356381335,39.21697135967373,0.3483089017819067,0.6160187455979615,A,645,Correct
2,relearn,3,168,D,53.213123453026164,49.25028435610851,2.6606561726513083,0.7736216576017939,B,2582,Incorrect
2,relearn,3,169,A,20.67894243815509,28.09454932779646,1.0339471219077545,0.4413081488706071,A,612,Correct
2,relearn,3,170,D,56.49164829371335,4.5703975154477945,2.824582414685667,0.07179163629257916,A,1525,Incorrect
2,relearn,3,171,D,72.92697123436832,12.39091158533856,3.6463485617184164,0.19463598403890137,C,1536,Incorrect
2,relearn,3,172,B,38.736140775666364,64.67387925369509,1.9368070387833183,1.015894919712809,C,827,Incorrect
2,relearn,3,173,D,74.79385898120087,20.715795437028476,3.7396929490600432,0.32540295379118805,C,742,Incorrect
2,relearn,3,174,C,88.00042292081038,67.51421936176142,4.400021146040519,1.060510877798797,C,1126,Correct
2,relearn,3,175,C,88.9215607249478,64.38088849205604,4.446078036247389,1.0112926315911346,C,662,Correct
2,relearn,3,176,B,75.4353507085033,72.82919134022934,3.7717675354251643,1.1439982624067493,C,730,Incorrect
2,relearn,3,177,C,97.25910351984069,61.1129727011621,4.862955175992035,0.959960330385022,C,625,Correct
2,relearn,3,178,D,63.763451006993066,28.892452551934035,3.1881725503496536,0.45384158340673814,D,1758,Correct
2,relearn,3,179,C,59.78186329380608,34.58605179437238,2.989093164690304,0.5432764311693817,D,724,Incorrect
2,relearn,3,180,C,71.85743740035014,59.77250238143701,3.5928718700175066,0.9389042718410047,C,678,Correct
2,relearn,3,181,A,29.499565194936523,24.02279564164022,1.474978259746826,0.3773491915323291,A,1244,Correct
2,relearn,3,182,B,64.40427669674526,70.39250674443603,3.2202138348372626,1.105722910280451,C,1823,Incorrect
2,relearn,3,183,A,21.95313126643898,33.106065849405525,1.097656563321949,0.5200288663087616,A,830,Correct
2,relearn,3,184,A,33.02026248294572,47.75766160192501,1.651013124147286,0.7501755942061747,A,1324,Correct
2,relearn,3,185,B,39.934910852784675,76.61727692422721,1.9967455426392338,1.2035013716160348,A,857,Incorrect
2,relearn,3,186,C,100.62416615562569,55.192802662209786,5.031208307781284,0.8669665168731473,C,2841,Correct
2,relearn,3,187,D,71.38421502748257,11.909555313461173,3.5692107513741287,0.18707485740145452,D,1511,Correct
2,relearn,3,188,A,42.395112578403484,32.299946009320216,2.119755628920174,0.5073663654711367,D,2640,Incorrect
2,relearn,3,189,C,67.16028040804997,67.24626142875488,3.3580140204024986,1.056301804429775,C,699,Correct
2,relearn,3,190,C,71.83758633164263,25.171572452755676,3.591879316582131,0.3953941354844023,D,512,Incorrect
2,relearn,3,191,D,56.126330899078546,43.8381651598075,2.8063165449539276,0.6886082880645364,C,996,Incorrect
2,relearn,3,192,A,13.236158833286549,35.731529480217446,0.6618079416643274,0.5612695525828912,A,781,Correct
2,relearn,3,193,B,54.0190407257277,51.29199958846786,2.700952036286385,0.8056928454753066,B,976,Correct
2,relearn,3,194,D,35.278024978085924,29.52711757365754,1.763901248904296,0.46381087825542305,A,1227,Incorrect
2,relearn,3,195,C,71.7578116638402,43.4519693021782,3.58789058319201,0.6825419377186611,C,662,Correct
2,relearn,3,196,C,100.46132721817744,51.41661169106041,5.023066360908872,0.8076502478055722,B,1555,Incorrect
2,relearn,3,197,C,71.4598950511336,62.15352129484406,3.5729947525566796,0.9763052294730945,D,928,Incorrect
2,relearn,3,198,A,16.763413573695942,34.96080730503003,0.8381706786847971,0.5491630769652536,A,572,Correct
2,relearn,3,199,C,71.05329035781685,57.11975782007455,3.5526645178908427,0.8972350577118716,C,1526,Correct
2,relearn,3,200,A,23.935400473781442,27.82414104952526,1.1967700236890721,0.43706058556817373,A,750,Correct
2,relearn,3,201,B,37.51376214464278,98.74047119810312,1.8756881072321392,1.5510116946397767,B,1838,Correct
2,relearn,3,202,A,16.333678467777638,53.80888825242869,0.816683923388882,0.8452280401583204,A,566,Correct
2,relearn,3,203,C,73.49529132332746,27.152166850048243,3.6747645661663735,0.4265052395257793,C,1221,Correct
2,relearn,3,204,D,31.860172536703857,6.0181503575264585,1.5930086268351928,0.09453288475701956,D,1932,Correct
2,relearn,3,205,D,65.86510254290575,16.534319879030782,3.293255127145287,0.2597204893203339,D,905,Correct
2,relearn,3,206,B,57.65422045879892,72.89119948448048,2.882711022939946,1.14497228405896,C,1483,Incorrect
2,relearn,3,207,B,38.44548665775034,72.29453169494728,1.922274332887517,1.1355998483378043,B,919,Correct
2,relearn,3,208,A,33.678337767201114,54.31461680549987,1.683916888360056,0.8531720056935156,C,2005,Incorrect
2,relearn,3,209,B,35.65172013698661,85.8536256912559,1.7825860068493307,1.3485855987784872,B,1438,Correct
2,relearn,3,210,A,12.685466548274112,73.084481040967,0.6342733274137057,1.1480083436486224,A,591,Correct
2,relearn,3,211,D,43.68731358222423,43.2637123527303,2.1843656791112114,0.6795848044717975,C,1028,Incorrect
2,relearn,3,212,C,70.65542701838085,74.62766102116362,3.5327713509190426,1.172248558093385,C,469,Correct
2,relearn,3,213,A,14.953081625441898,60.566441358899155,0.747654081272095,0.9513754361359729,A,727,Correct
2,relearn,3,214,D,75.11323168882465,19.431659736436323,3.755661584441233,0.3052317973752246,A,1483,Incorrect
2,relearn,3,215,A,27.36405800419434,36.56125345357914,1.368202900209717,0.5743028262789933,D,2193,Incorrect
2,relearn,3,216,B,42.32042854008901,51.55984945136997,2.1160214270044504,0.8099002212830981,C,2474,Incorrect
2,relearn,3,217,A,24.518201931563553,60.03296635885832,1.2259100965781777,0.9429956304309624,A,870,Correct
2,relearn,3,218,B,68.59348771041253,65.57515158709128,3.429674385520627,1.0300520724202151,C,2914,Incorrect
2,relearn,3,219,C,94.31084607566682,48.0744569915032,4.715542303783341,0.7551518045491247,C,921,Correct
2,relearn,3,220,C,71.14696601469134,42.52843987085505,3.5573483007345668,0.6680351713345674,C,1515,Correct
2,relearn,3,221,D,23.61932647303702,26.684760220676075,1.180966323651851,0.4191632333604055,A,598,Incorrect
2,relearn,3,222,B,31.54828361088864,57.19055073211697,1.577414180544432,0.8983470701738652,B,1887,Correct
2,relearn,3,223,B,55.62772896807776,60.542164250087495,2.7813864484038877,0.9509940922025074,B,902,Correct
2,relearn,3,224,C,76.94593151033703,68.21297162746201,3.8472965755168516,1.0714868527218182,B,819,Incorrect
2,relearn,3,225,B,43.53674367740317,62.13933073675963,2.1768371838701586,0.9760823247079524,B,953,Correct
2,relearn,3,226,B,52.12369720975946,65.80531519105412,2.606184860487973,1.0336674738568823,C,579,Incorrect
2,relearn,3,227,C,65.82732103751994,50.4481893241863,3.291366051875997,0.7924383048388536,B,421,Incorrect
2,relearn,3,228,D,39.94013012208886,33.744802823106156,1.997006506104443,0.5300621232295321,B,1623,Incorrect
2,relearn,3,229,D,48.70012036995085,3.095454353229133,2.4350060184975426,0.04862328327813595,D,838,Correct
2,relearn,3,230,D,54.63969378127534,49.26608628710612,2.731984689063767,0.7738698737534672,C,1562,Incorrect
2,relearn,3,231,A,48.582495246389,48.572558070870336,2.42912476231945,0.7629759580075495,B,719,Incorrect
2,relearn,3,232,C,69.20867023882889,43.99027358545133,3.460433511941444,0.6909976016272951,A,773,Incorrect
2,relearn,3,233,D,32.92725254354947,10.03070889930715,1.6463626271774734,0.15756200694180553,A,444,Incorrect
2,relearn,3,234,C,66.2662411883228,30.425371300426523,3.31331205941614,0.47792061480080855,B,1368,Incorrect
2,relearn,3,235,B,50.9973402341418,67.21200205612692,2.5498670117070903,1.0557636594629518,C,828,Incorrect
2,relearn,3,236,A,24.20690556889703,52.64632431983549,1.2103452784448516,0.8269665286085044,A,765,Correct
2,relearn,3,237,B,39.48318818612965,61.393844649164095,1.9741594093064827,0.9643722566272347,B,2141,Correct
2,relearn,3,238,B,52.91806943848063,67.25053012994385,2.6459034719240315,1.0563688570312533,B,673,Correct
2,relearn,3,239,D,60.67988970003256,20.499147487163604,3.033994485001628,0.32199985575263423,C,924,Incorrect
2,relearn,3,240,A,9.082507640301985,32.199246689674894,0.4541253820150992,0.5057845842570405,A,564,Correct
2,relearn,3,241,D,63.896283350018365,24.80209121920794,3.1948141675009185,0.3895903378396379,D,625,Correct
2,relearn,3,242,B,47.48104853161153,59.56208728311482,2.3740524265805765,0.9355990792055379,C,892,Incorrect
2,relearn,3,243,C,88.21547604228117,37.06373852812336,4.410773802114059,0.5821958433726266,C,2005,Correct
2,relearn,3,244,B,43.550008590133075,97.87812817408415,2.1775004295066536,1.5374660420941149,B,2159,Correct
2,relearn,3,245,C,58.1038761513949,47.42263833581774,2.905193807569745,0.7449130610482535,C,868,Correct
2,relearn,3,246,C,72.06344133532554,67.5508593657085,3.6031720667662768,1.0610864176349355,C,1654,Correct
2,relearn,3,247,D,55.60202992846469,43.64668354215847,2.7801014964232342,0.6856005018480179,D,1647,Correct
2,relearn,3,248,A,20.689138425328014,63.46834719960813,1.0344569212664008,0.996958466488876,A,850,Correct
2,relearn,3,249,B,47.9176050924318,55.76786818964448,2.39588025462159,0.875999625054755,B,3254,Correct
2,relearn,3,250,D,25.617609202312728,34.354495679003485,1.2808804601156365,0.5396391562146982,A,696,Incorrect
2,relearn,3,251,C,69.8714667818482,59.33591184637988,3.4935733390924097,0.932046323753193,C,1212,Correct
2,relearn,3,252,B,26.459850269512444,75.42996369492666,1.3229925134756224,1.184851099022632,B,2110,Correct
2,relearn,3,253,A,35.09037313131288,55.100824237485774,1.7545186565656439,0.8655217231561386,C,806,Incorrect
2,relearn,3,254,D,38.26532362704693,21.797799560324247,1.9132661813523466,0.34239903481568734,D,2196,Correct
2,relearn,3,255,C,68.51035426226686,29.90050174111049,3.4255177131133427,0.4696759830426077,D,965,Incorrect
2,relearn,3,256,A,8.866830532467876,56.779640562844335,0.44334152662339377,0.8918925083285039,A,807,Correct
2,relearn,3,257,B,35.51562892832058,93.01809964577299,1.775781446416029,1.4611248924902187,C,1391,Incorrect
2,relearn,3,258,C,73.37132807199238,56.351436793116086,3.668566403599619,0.8851662992424153,C,1042,Correct
2,relearn,3,259,D,38.58757346204778,47.331708101678785,1.9293786731023888,0.7434847322704529,D,1408,Correct
2,relearn,3,260,C,83.95882881520112,72.07976790843713,4.197941440760056,1.1322263466680171,C,926,Correct
2,relearn,3,261,C,55.01469724407143,39.806698107005815,2.7507348622035717,0.6252821516831809,D,868,Incorrect
2,relearn,3,262,C,79.64845187089948,32.803891324192996,3.9824225935449737,0.5152823199662133,C,833,Correct
2,relearn,3,263,D,55.01187281141216,25.33363268247618,2.750593640570608,0.39793977162004723,B,2267,Incorrect
2,relearn,3,264,B,36.37767145591592,92.95594271564076,1.8188835727957962,1.460148533714853,B,1280,Correct
2,relearn,3,265,C,84.36125645113499,55.43482601224236,4.21806282255675,0.8707682107654449,C,764,Correct
2,relearn,3,266,C,70.2199737925757,25.30110143712183,3.5109986896287855,0.3974287720129605,D,2054,Incorrect
2,relearn,3,267,D,39.2858635611422,9.176554711965018,1.96429317805711,0.1441449843418705,B,1812,Incorrect
2,relearn,3,268,D,73.32260804554092,29.92404412228488,3.666130402277046,0.470045785901335,C,1173,Incorrect
2,relearn,3,269,D,34.01013088245861,30.490379597457263,1.7005065441229306,0.47894176274267924,B,1677,Incorrect
2,relearn,3,270,A,18.94093607663383,53.8700525995001,0.9470468038316915,0.8461888074754261,A,615,Correct
2,relearn,3,271,B,70.78932772056508,58.199901148204226,3.5394663860282543,0.9142019094342528,C,896,Incorrect
2,relearn,3,272,B,45.47757715025352,95.7818711491744,2.2738788575126763,1.5045381137466523,D,1101,Incorrect
2,relearn,3,273,D,51.886507053275885,10.63647929614933,2.594325352663794,0.16707742608421336,D,759,Correct
2,relearn,3,274,C,93.44898978121076,45.80606029395389,4.672449489060537,0.7195199125468832,C,1196,Correct
2,relearn,3,275,B,30.01897352270752,81.20273831526869,1.5009486761353759,1.2755296307131128,B,1412,Correct
2,relearn,3,276,C,101.46064656123527,45.61071322387717,5.073032328061763,0.7164514079456167,C,628,Correct
2,relearn,3,277,A,38.78713891883788,50.73032520575121,1.9393569459418942,0.7968700849030455,B,527,Incorrect
2,relearn,3,278,D,74.02179523787918,35.512620497682974,3.701089761893959,0.5578309383262157,C,518,Incorrect
2,relearn,3,279,C,88.9027320331906,63.88578991640693,4.44513660165953,1.0035156413508244,C,613,Correct
2,relearn,3,280,D,62.05219946696618,4.209114534308192,3.1026099733483092,0.0661166164955032,B,1483,Incorrect
2,relearn,3,281,C,86.21995620660968,68.09377934636892,4.310997810330484,1.069614584748585,C,1304,Correct
2,relearn,3,282,B,46.52394099718666,76.78269584968193,2.326197049859333,1.2060997660209014,C,763,Incorrect
2,relearn,3,283,C,91.04955192194224,46.58187193036977,4.552477596097112,0.7317063332345514,C,583,Correct
2,relearn,3,284,C,83.44321885880122,29.1500113765016,4.172160942940061,0.45788730796238153,D,1172,Incorrect
2,relearn,3,285,C,68.3931717832568,30.990429961444374,3.41965858916284,0.4867965354923132,C,638,Correct
2,relearn,3,286,D,65.25454941809349,29.228872510441203,3.2627274709046743,0.4591260557575737,C,682,Incorrect
2,relearn,3,287,C,67.73503561216997,59.0083958740399,3.386751780608498,0.9269017148900102,C,792,Correct
2,relearn,3,288,C,55.86544339757921,59.73819903645051,2.7932721698789607,0.938365436157989,C,628,Correct
2,relearn,3,289,D,66.96747759512637,8.524944459614293,3.348373879756318,0.13390951443292637,D,1094,Correct
2,relearn,3,290,C,64.68448881297519,32.432766237700115,3.2342244406487595,0.5094527007397688,C,1283,Correct
2,relearn,3,291,C,66.10565192891326,59.13831755745026,3.305282596445663,0.9289425199207301,C,1221,Correct
2,relearn,3,292,D,28.168872662400492,26.578772268899737,1.4084436331200245,0.41749837850705773,C,1176,Incorrect
2,relearn,3,293,B,39.27682016315403,77.35092351699966,1.9638410081577014,1.2150254653469603,D,1763,Incorrect
2,relearn,3,294,D,62.598252848898454,30.018864293936414,3.129912642444923,0.47153521767469797,C,631,Incorrect
2,relearn,3,295,D,43.479842451856946,20.734364140593232,2.173992122592847,0.32569463030471674,D,790,Correct
2,relearn,3,296,A,20.95861252419683,63.90860399660014,1.0479306262098416,1.0038740040844916,A,805,Correct
2,relearn,3,297,B,63.82787207041339,65.66794141746414,3.1913936035206696,1.031509611667351,C,875,Incorrect
2,relearn,3,298,A,26.41321361048994,23.307238186204117,1.3206606805244971,0.36610924130623174,A,638,Correct
2,relearn,3,299,D,34.49417115878368,44.00291558279756,1.7247085579391839,0.6911961816572433,A,647,Incorrect
2,relearn,3,300,B,56.43936440784265,54.309838364318296,2.8219682203921326,0.8530969461149573,C,802,Incorrect
2,relearn,3,301,A,49.26998106657038,57.91206260794982,2.463499053328519,0.9096805522168365,D,702,Correct
2,relearn,3,302,A,22.357186313266197,23.93260000512186,1.1178593156633099,0.37593240178696935,A,704,Correct
2,relearn,3,303,C,67.9627808635302,28.680099601876993,3.39813904317651,0.45050595106740154,B,1646,Correct
2,relearn,3,304,B,72.68898134579041,87.9537861623714,3.6344490672895207,1.3815748423155678,C,749,Incorrect
2,relearn,3,305,D,69.22855817682373,10.470145713589268,3.4614279088411863,0.16446466427913353,D,2582,Correct
2,relearn,3,306,A,14.539775537642027,59.194506072676866,0.7269887768821013,0.9298251270539901,A,613,Incorrect
2,relearn,3,307,D,30.718000636586307,24.572034858636265,1.5359000318293152,0.38597662097822,C,1455,Incorrect
2,relearn,3,308,B,57.69608011480116,53.31646791174204,2.8848040057400577,0.8374931195344235,B,1330,Incorrect
2,relearn,3,309,D,50.48330460965268,22.730213012644352,2.524165230482634,0.3570453510752731,D,688,Incorrect
2,relearn,3,310,C,72.16958296926643,72.42856211592124,3.6084791484633216,1.1377051932672506,C,925,Correct
2,relearn,3,311,C,90.84021469190564,62.94106547022117,4.542010734595283,0.9886759444518051,C,1031,Correct
2,relearn,3,312,C,88.77961670442666,61.54049609980552,4.438980835221333,0.9666758522271018,C,590,Correct
2,relearn,3,313,A,26.865029782714934,45.53026307104408,1.3432514891357468,0.7151876999000137,A,790,Incorrect
2,relearn,3,314,A,46.510658596476176,40.90249860673617,2.3255329298238085,0.6424949456819455,B,6110,Incorrect
2,relearn,3,315,C,77.14366648801223,66.74685430007581,3.8571833244006113,1.0484571355967323,D,827,Incorrect
2,relearn,3,316,D,45.633190640547,28.5629053555386,2.28165953202735,0.4486650681507031,D,1620,Correct
2,relearn,3,317,C,63.005065270473864,60.304600509776705,3.1502532635236933,0.947262449695909,C,1031,Incorrect
2,relearn,3,318,A,35.441766690975896,28.608429092463627,1.7720883345487948,0.4493801533381412,C,725,Incorrect
2,relearn,3,319,A,24.962261675814926,63.25928337353721,1.2481130837907464,0.9936744995882972,B,794,Incorrect
2,relearn,3,320,D,60.73056622248678,18.829501517235226,3.036528311124339,0.29577311818652025,D,795,Incorrect
2,relearn,3,321,D,29.99047811910688,12.271522505212229,1.4995239059553438,0.19276062475368277,D,788,Incorrect
2,relearn,3,322,B,23.68314444164699,75.28077227443059,1.1841572220823495,1.1825076056695865,D,782,Incorrect
2,relearn,3,323,A,29.4894447894479,26.15910829389574,1.474472239472395,0.4109063122028134,D,639,Incorrect
2,relearn,3,324,B,46.692862621473,74.72599521207225,2.33464313107365,1.1737931879521615,C,1219,Incorrect
2,relearn,3,325,C,94.03854372540506,41.04971630451263,4.701927186270253,0.6448074358710102,C,823,Incorrect
2,relearn,3,326,C,65.83907116388227,60.09683211316261,3.2919535581941135,0.9439988313536541,C,701,Correct
2,relearn,3,327,C,79.29599829919002,26.934243394602262,3.9647999149595012,0.42308210589240935,D,703,Incorrect
2,relearn,3,328,A,41.59985160048092,35.02944989840879,2.079992580024046,0.550241312300664,C,573,Incorrect
2,relearn,3,329,D,40.682170020479845,30.288335882149283,2.0341085010239923,0.4757680674841016,B,688,Incorrect
2,relearn,3,330,C,56.42544339929718,59.673628881661614,2.821272169964859,0.9373511705383593,C,699,Incorrect
2,relearn,3,331,A,22.882376354419137,28.048247755865535,1.144118817720957,0.4405808454794678,A,644,Correct
2,relearn,3,332,A,44.55829334862694,51.45189199760209,2.227914667431347,0.808204429564811,C,1415,Incorrect
2,relearn,3,333,C,94.01747042660705,56.01502268230013,4.700873521330352,0.8798819187468987,C,989,Incorrect
2,relearn,3,334,C,73.9997755015075,50.706544527519135,3.699988775075375,0.7964965388828892,C,669,Incorrect
2,relearn,3,335,A,37.70298906128427,33.730578316126234,1.8851494530642134,0.5298386851963868,A,664,Incorrect
2,relearn,3,336,B,30.391359585844206,81.68966956129425,1.5195679792922103,1.2831783288396987,A,803,Incorrect
2,relearn,3,337,B,36.52995028297428,71.50981829387472,1.826497514148714,1.123273599057889,B,550,Incorrect
2,relearn,3,338,A,-1.730807144940126,48.261425074380455,-0.0865403572470063,0.7580886923272393,A,590,Incorrect
2,relearn,3,339,D,70.12807234188843,24.750659498516583,3.506403617094421,0.3887824502602107,D,831,Correct
2,relearn,3,340,B,70.83715588299751,67.53923403973431,3.5418577941498754,1.0609038074415549,D,843,Incorrect
2,relearn,3,341,C,90.35713395196315,51.26574674849173,4.517856697598157,0.8052804668292822,C,104,Correct
2,relearn,3,342,B,27.372144378454625,71.11607667086287,1.3686072189227312,1.1170887201065562,B,2052,Incorrect
2,relearn,3,343,D,30.482080060289938,8.972845624792988,1.524104003014497,0.14094512948322485,B,1074,Incorrect
2,relearn,3,344,A,6.125285696506964,50.49108788397832,0.3062642848253482,0.7931121538403144,A,618,Correct
2,relearn,3,345,B,66.51152635452186,76.37959372142443,3.325576317726093,1.1997678525970001,A,967,Incorrect
2,relearn,3,346,A,25.16405689595323,57.195439826207014,1.2582028447976614,0.8984238678842451,D,1004,Correct
2,relearn,3,347,A,8.920341626754354,39.65983499502451,0.44601708133771767,0.622975231314762,A,752,Correct
2,relearn,3,348,A,-0.8050756402925892,47.54529616301139,-0.04025378201462946,0.746839765692338,A,619,Correct
2,relearn,3,349,A,42.51467907733971,36.08940890170138,2.1257339538669853,0.5668911093899157,C,924,Incorrect
2,relearn,3,350,B,50.309506433268844,88.6023307171717,2.515475321663442,1.3917621563599991,B,734,Incorrect
2,relearn,3,351,D,28.00542876337258,36.78116424116664,1.4002714381686292,0.5777571768526435,D,1696,Correct
2,relearn,3,352,A,14.208603397976715,26.408616516015304,0.7104301698988357,0.41482557819091875,A,955,Incorrect
2,relearn,3,353,A,19.32291770492838,47.983209216502765,0.966145885246419,0.7537184878511357,D,912,Incorrect
2,relearn,3,354,B,42.93541197509827,68.56136836998441,2.1467705987549137,1.076959455956033,C,845,Correct
2,relearn,3,355,A,29.82687765117139,48.36830356477388,1.4913438825585694,0.759767535728473,C,958,Incorrect
2,relearn,3,356,B,40.22988940523188,65.0863417286692,2.011494470261594,1.0223738651191097,C,774,Incorrect
2,relearn,3,357,D,55.583513733206715,26.40843385473203,2.7791756866603357,0.4148227089541907,D,894,Correct
2,relearn,3,358,B,31.47314245189142,82.81455939670778,1.573657122594571,1.3008480570548637,C,557,Incorrect
2,relearn,3,359,B,30.283018217669778,75.37714000249717,1.514150910883489,1.1840213464022722,D,589,Incorrect
2,relearn,3,360,B,25.074108112818948,78.15961593372859,1.2537054056409473,1.2277283761240072,C,837,Incorrect
2,relearn,3,361,A,26.275086936591343,50.05121429637095,1.3137543468295672,0.786202635683637,C,499,Incorrect
2,relearn,3,362,D,33.6258022792088,45.123754556172635,1.6812901139604401,0.7088022790803046,B,341,Incorrect
2,relearn,3,363,C,69.1816587943093,37.93798387290015,3.4590829397154654,0.5959284571355558,C,686,Incorrect
2,relearn,3,364,A,26.507044983818005,30.109297790424286,1.3253522491909002,0.47295574371572163,D,1126,Incorrect
2,relearn,3,365,D,54.867500458449534,35.52951457488353,2.7433750229224767,0.5580963098703279,C,518,Incorrect
2,relearn,3,366,B,63.85309439151056,61.60314152269338,3.1926547195755277,0.9676598842287293,B,444,Incorrect
2,relearn,3,367,B,31.134553234831902,93.6770550406106,1.556727661741595,1.4714757396275449,C,1031,Incorrect
2,relearn,3,368,B,54.49008998811506,93.4328452739679,2.7245044994057532,1.467639701583447,B,725,Incorrect
2,relearn,3,369,D,24.08852353633216,20.98102779714043,1.204426176816608,0.32956921396129807,A,1703,Correct
2,relearn,3,370,B,24.922409607039363,71.38542039344661,1.246120480351968,1.1213195614073543,C,2629,Incorrect
2,relearn,3,371,B,35.96552819275247,59.928937330934474,1.7982764096376236,0.9413615462815342,A,2126,Incorrect
2,relearn,3,372,A,40.78957210309474,54.4575403696338,2.039478605154737,0.8554170437890556,D,843,Correct
2,relearn,3,373,D,49.71647815722116,36.6930398858243,2.4858239078610582,0.5763729227159143,D,752,Incorrect
2,relearn,3,374,A,33.63983276565709,61.97505071969782,1.6819916382828546,0.9735018202342874,D,1670,Incorrect
2,relearn,3,375,D,38.75857821819111,29.917507945102788,1.9379289109095554,0.4699431158702459,D,509,Incorrect
2,relearn,3,376,C,71.44190817676491,66.60707792997111,3.5720954088382455,1.0462615335094005,C,708,Correct
2,relearn,3,377,C,93.49109047541424,45.66898060083379,4.674554523770712,0.7173666697625711,D,1807,Incorrect
2,relearn,3,378,C,70.05189692881201,34.14635843321674,3.502594846440601,0.5363697440031879,C,574,Correct
2,relearn,3,379,B,32.88050537292689,64.21923335921568,1.6440252686463446,1.0087533587024027,D,3013,Incorrect
2,relearn,3,380,B,57.63476829990101,53.71584840256398,2.8817384149950502,0.8437665736141902,C,447,Incorrect
2,relearn,3,381,A,15.68589490507774,29.4484596548679,0.784294745253887,0.46257532255634204,A,755,Correct
2,relearn,3,382,D,32.389654447394705,20.145928537077037,1.6194827223697355,0.3164515054591309,B,886,Correct
2,relearn,3,383,C,56.25224602871086,44.682743107689056,2.8126123014355424,0.7018748874467795,C,947,Incorrect
2,relearn,3,384,B,39.742655146386085,92.47633512645267,1.9871327573193043,1.4526148753208572,B,513,Correct
2,relearn,3,385,A,30.43844599599956,24.11120082527722,1.5219222997999782,0.3787378569095953,D,1107,Incorrect
2,relearn,3,386,A,10.204419466160196,32.39549946177541,0.5102209733080099,0.5088673155924286,A,732,Correct
2,relearn,3,387,D,39.318448642718735,38.41651625999374,1.965922432135937,0.6034452262945458,B,1039,Incorrect
2,relearn,3,388,A,35.98427934281515,55.031797945046456,1.7992139671407574,0.864437460689979,B,596,Incorrect
2,relearn,3,389,C,96.7681890247513,49.29141219139898,4.838409451237564,0.774267692127827,C,917,Correct
2,relearn,3,390,A,46.54461903900007,35.762269214695046,2.3272309519500034,0.5617524112029318,B,2086,Incorrect
2,relearn,3,391,C,97.41804008852455,46.221924322828386,4.8709020044262274,0.7260522894369051,C,782,Incorrect
2,relearn,3,392,D,33.23196013199167,21.838231792499656,1.6615980065995837,0.3430341428335399,B,1198,Incorrect
2,relearn,3,393,B,67.87084825949762,57.6741490937645,3.393542412974881,0.9059434154750649,C,710,Correct
2,relearn,3,394,A,21.700072778841154,62.890181042561814,1.0850036389420579,0.9878766537312214,B,1136,Incorrect
2,relearn,3,395,D,48.38348680890011,48.216338788275394,2.4191743404450055,0.7573804786012128,C,598,Incorrect
2,relearn,3,396,D,36.549184034813265,42.36647104803539,1.8274592017406632,0.6654909710151633,B,803,Incorrect
2,relearn,3,397,A,41.64467873784777,41.16211898298152,2.082233936892388,0.6465730530156185,C,280,Incorrect
2,relearn,3,398,C,78.97177756422113,31.7960128895051,3.9485888782110568,0.49945060253557794,D,342,Incorrect
2,relearn,3,399,A,16.762146682180095,68.24625910934085,0.8381073341090047,1.0720097312644536,A,628,Correct
2,relearn,3,400,A,30.315566161554298,73.14896380484751,1.5157783080777147,1.1490212365350732,B,1742,Incorrect
2,relearn,3,401,D,52.16904287805935,18.810636279638395,2.6084521439029675,0.29547678372730807,B,4615,Incorrect
2,relearn,3,402,C,69.49061923192534,37.189191485115,3.4745309615962667,0.5841664538129069,B,252,Incorrect
2,relearn,3,403,A,50.76209484764199,49.696085760288526,2.5381047423820995,0.7806242896834538,B,303,Incorrect
2,relearn,3,404,D,32.775496163438405,22.720716546071642,1.63877480817192,0.3568961809271736,B,308,Incorrect
2,relearn,3,405,D,43.89562812454068,37.86922897584973,2.194781406227034,0.5948484577381963,B,437,Incorrect
2,relearn,3,406,D,41.99432459015595,49.74053199666424,2.099716229507797,0.7813224495318422,B,502,Incorrect
2,relearn,3,407,C,50.6458969789942,58.73647826868773,2.53229484894971,0.9226304431332295,B,524,Incorrect
2,relearn,3,408,A,13.817702410385062,59.71233853959289,0.6908851205192531,0.9379592204232584,A,615,Incorrect
2,relearn,3,409,A,21.80889701596064,38.42885840514564,1.090444850798032,0.6036390962572397,B,590,Incorrect
2,relearn,3,410,C,52.46081431500463,36.911318630607305,2.6230407157502316,0.5798016372211399,B,550,Incorrect
2,relearn,3,411,A,40.50771423077301,71.52181604656644,2.0253857115386507,1.1234620593164686,B,437,Correct
2,relearn,3,412,D,52.71581188123609,30.202500392120292,2.6357905940618047,0.4744197667596398,C,3845,Incorrect
2,relearn,3,413,D,29.494743160789692,39.1213769741648,1.4747371580394846,0.6145171525017651,B,782,Incorrect
2,relearn,3,414,B,41.27268083545066,93.05724464889032,2.063634041772533,1.4617397807613097,B,539,Incorrect
2,relearn,3,415,B,39.649515199514376,82.33242871860446,1.9824757599757188,1.2932747660728654,B,376,Correct
2,relearn,3,416,C,55.137687345785736,58.22237077449248,2.7568843672892864,0.9145548614986333,C,1339,Incorrect
2,relearn,3,417,A,22.633949500448374,69.4962624638312,1.1316974750224187,1.0916447380416008,B,622,Incorrect
2,relearn,3,418,B,43.01796604552862,64.44978516790421,2.1508983022764308,1.0123748580446414,B,725,Incorrect
2,relearn,3,419,D,73.7130114219346,16.662936071832874,3.6856505710967298,0.2617407877525326,B,381,Incorrect
2,relearn,3,420,D,37.69820319733563,37.864297759388826,1.8849101598667815,0.594770998371162,B,716,Correct
2,relearn,3,421,D,53.31541171180581,16.73611148596518,2.6657705855902907,0.2628902244698398,B,856,Incorrect
2,relearn,3,422,B,64.05237847939199,94.12346999349776,3.2026189239695997,1.4784880093097594,B,1214,Correct
2,relearn,3,423,C,88.4896951276849,46.24796536544008,4.424484756384245,0.7264613411777087,C,947,Correct
2,relearn,3,424,C,64.2598202610192,50.2760462232846,3.2129910130509596,0.7897342873330588,C,887,Incorrect
2,relearn,3,425,C,83.29071532411452,44.05177748287407,4.164535766205725,0.6919637025888473,C,108,Incorrect
2,relearn,3,426,D,61.764485412384886,19.567888706634015,3.088224270619244,0.3073716770351205,C,504,Incorrect
2,relearn,3,427,A,47.4884643010049,54.7147601208859,2.3744232150502453,0.8594574421935145,C,269,Incorrect
2,relearn,3,428,B,73.61744821583986,75.60912005254383,3.6808724107919932,1.1876652805073022,C,254,Incorrect
2,relearn,3,429,A,46.17909368089492,62.898272170793305,2.308954684044746,0.988003748876278,C,358,Incorrect
2,relearn,3,430,C,68.4474980993051,42.063541454572054,3.4223749049652548,0.6607325640882664,C,420,Correct
2,relearn,3,431,C,75.28396246597022,35.616026451001865,3.764198123298511,0.5594552352426361,C,1429,Incorrect
2,relearn,3,432,B,34.30265844781167,64.60498105660304,1.7151329223905836,1.0148126693636592,C,798,Incorrect
2,relearn,3,433,B,60.54225617752577,90.35888435851656,3.0271128088762884,1.4193540364364263,D,444,Incorrect
2,relearn,3,434,A,12.639634091485284,52.093125513734414,0.6319817045742642,0.8182769020823953,D,254,Incorrect
2,relearn,3,435,B,61.872579211295786,76.07191570790914,3.0936289605647893,1.1949348576623466,D,543,Incorrect
2,relearn,3,436,A,21.093941245617668,27.205659194314833,1.0546970622808833,0.42734549530463545,A,484,Correct
2,relearn,3,437,A,41.005989031690916,31.142743468156084,2.0502994515845456,0.4891890704609534,D,638,Incorrect
2,relearn,3,438,A,46.62878875509683,55.336237975643144,2.3314394377548413,0.869219593507885,D,480,Incorrect
2,relearn,3,439,C,62.560248937802314,59.04216490507056,3.128012446890116,0.9274321575890337,D,275,Incorrect
2,relearn,3,440,D,71.07359107137876,25.638557597557696,3.553679553568938,0.40272952098563014,D,278,Incorrect
2,relearn,3,441,B,63.892482961430865,58.991870189719286,3.1946241480715436,0.9266421300477241,D,308,Incorrect
2,relearn,3,442,A,24.31711952693079,50.680844508502666,1.2158559763465393,0.7960928439281929,A,701,Incorrect
2,relearn,3,443,A,46.59276471776873,57.69053161937768,2.3296382358884364,0.9062007515856331,D,385,Correct
2,relearn,3,444,A,10.1158996183285,70.92932899256019,0.5057949809164249,1.114155294435403,A,1026,Incorrect
2,relearn,3,445,D,58.19496748533662,37.15037136565142,2.9097483742668313,0.5835566688023154,B,1047,Correct
2,relearn,3,446,C,60.57949599332242,35.47875034417447,3.0289747996661207,0.5572989071990243,C,1054,Correct
2,relearn,3,447,A,40.37450390038119,42.11281286966368,2.01872519501906,0.6615065176666854,B,1230,Incorrect
2,relearn,3,448,C,85.22007254659815,69.687931545152,4.261003627329908,1.0946554689305896,C,652,Incorrect
2,relearn,3,449,B,55.49325911382987,81.34445976282369,2.7746629556914932,1.2777557860055873,B,590,Correct
2,relearn,3,450,C,80.506729870645,58.590792507980936,4.02533649353225,0.920342016555384,C,963,Incorrect
2,relearn,3,451,C,88.98551167466118,55.40956074314701,4.449275583733059,0.8703713448465403,C,1231,Incorrect
2,relearn,3,452,D,38.11634653341289,14.016247249017658,1.9058173266706444,0.2201666969420601,D,1240,Correct
2,relearn,3,453,B,63.02266223261486,97.7686696322041,3.151133111630743,1.5357466713388996,B,1019,Correct
2,relearn,3,454,A,35.312122998488725,39.58061957779092,1.7656061499244362,0.6217309184506015,C,1406,Incorrect
2,relearn,3,455,B,51.635518319439036,72.71921942717806,2.581775915971952,1.1422708276360338,C,812,Incorrect
2,relearn,3,456,A,26.863099604575062,69.97781609885354,1.3431549802287532,1.0992089648520793,D,622,Incorrect
2,relearn,3,457,B,45.28279486168405,57.08279644021586,2.2641397430842027,0.8966544697147188,D,523,Incorrect
2,relearn,3,458,C,68.06566309120116,31.581376289234804,3.4032831545600577,0.4960790987025747,C,869,Correct
2,relearn,3,459,B,41.74878249817104,54.8247980485699,2.0874391249085518,0.8611859139196562,B,918,Incorrect
2,relearn,3,460,B,31.529554169590288,70.37042890168577,1.5764777084795145,1.1053761123374946,D,559,Incorrect
2,relearn,3,461,C,85.90023121956969,25.90463213425965,4.295011560978485,0.40690901003468105,C,956,Correct
2,relearn,3,462,A,31.78239728436687,29.2916374966095,1.5891198642183435,0.4601119658548186,C,815,Correct
2,relearn,3,463,A,14.620376600404052,35.98259634360923,0.7310188300202026,0.5652133016508485,C,948,Incorrect
2,relearn,3,464,C,76.92252586177757,28.633443693703647,3.8461262930888784,0.4497730817755819,C,757,Incorrect
2,relearn,3,465,B,51.17048359307777,65.49579297471739,2.5585241796538885,1.0288055102520508,B,1062,Incorrect
2,relearn,3,466,B,27.61497889712508,81.5867659970668,1.380748944856254,1.281561923432673,D,2263,Correct
2,relearn,3,467,D,43.807789098207444,44.960220538789216,2.190389454910372,0.7062334927421856,C,1398,Incorrect
2,relearn,3,468,A,27.96640669840547,32.945559603581444,1.3983203349202737,0.5175076400950805,B,3980,Incorrect
2,relearn,3,469,D,40.90423928816765,8.933845802432895,2.0452119644083826,0.14033252170613597,D,1404,Correct
2,relearn,3,470,C,74.47966263742536,66.49253259369917,3.723983131871268,1.044462259574726,C,1464,Incorrect
2,relearn,3,471,D,46.36425315123198,29.175546943911186,2.318212657561599,0.4582884197172776,C,762,Incorrect
2,relearn,3,472,C,74.75192792617807,46.65124406663933,3.7375963963089034,0.7327960282028927,D,613,Incorrect
2,relearn,3,473,B,51.9807047432462,83.47882386168905,2.59903523716231,1.3112822988709931,D,2272,Incorrect
2,relearn,3,474,B,57.26072469441154,90.03669083206489,2.8630362347205773,1.4142930323577527,B,755,Correct
2,relearn,3,475,C,67.57302447821759,49.12367313292942,3.3786512239108792,0.7716328531587867,C,1246,Incorrect
2,relearn,3,476,C,63.62915277362473,56.74563448180996,3.1814576386812363,0.891358342056729,C,958,Correct
2,relearn,3,477,B,44.76893532276817,86.55325245749214,2.238446766138409,1.3595753103237997,B,851,Correct
2,relearn,3,478,A,29.11265380847786,52.49782337854455,1.455632690423893,0.8246338812774503,A,815,Incorrect
2,relearn,3,479,A,14.339437673235132,27.924179704827054,0.7169718836617566,0.4386319890910294,D,631,Incorrect
2,relearn,3,480,C,70.55555234843798,69.61353130049932,3.527777617421899,1.093486792620459,B,740,Incorrect
2,relearn,3,481,A,27.360478481112256,60.4969545382662,1.3680239240556127,0.950283939709864,A,614,Incorrect
2,relearn,3,482,D,26.72207918342981,12.503765259209517,1.3361039591714905,0.1964086854027195,A,707,Correct
2,relearn,3,483,C,84.12775929909651,45.14699262067417,4.206387964954826,0.7091673017439128,C,958,Incorrect
2,relearn,3,484,B,48.0205135016253,76.26165868555026,2.4010256750812653,1.1979153333854846,D,1159,Incorrect
2,relearn,3,485,C,67.79777474195791,71.6964954050665,3.3898887370978956,1.1262059162634563,C,863,Correct
2,relearn,3,486,A,11.358984359080997,66.90656881209495,0.5679492179540498,1.0509659252848873,A,589,Incorrect
2,relearn,3,487,A,39.275211995980406,46.74944669755442,1.9637605997990204,0.7343385915221229,B,1917,Incorrect
2,relearn,3,488,A,11.37693595874173,61.41631630066377,0.5688467979370864,0.9647252405035619,A,629,Incorrect
2,relearn,3,489,D,60.60589083151844,28.980543966213453,3.0302945415759215,0.45522532010646094,D,996,Incorrect
2,relearn,3,490,A,45.12903015933468,48.0615026777094,2.256451507966734,0.7549483186638901,D,1118,Incorrect
2,relearn,3,491,B,37.58816260743132,93.54413288003161,1.879408130371566,1.4693878032116736,B,1405,Incorrect
2,relearn,3,492,B,45.79272366183042,61.728929704741276,2.2896361830915213,0.9696357603718796,C,1606,Incorrect
2,relearn,3,493,D,62.10560061679557,16.77109729407463,3.1052800308397788,0.2634397802585226,B,2542,Incorrect
2,relearn,3,494,B,34.155820275232465,60.803173560026444,1.7077910137616232,0.9550940168556211,C,1621,Correct
2,relearn,3,495,C,70.23469428590467,68.37447858974028,3.5117347142952333,1.0740237981528031,C,1458,Incorrect
2,relearn,3,496,B,62.11262256198842,81.07381263353041,3.1056311280994207,1.2735044708400727,B,952,Incorrect
2,relearn,3,497,B,58.753452742994426,59.816864454339246,2.9376726371497215,0.939601109652643,C,1020,Incorrect
2,relearn,3,498,D,72.38102157286892,25.97729505940384,3.6190510786434458,0.40805039659378767,D,2183,Correct
2,relearn,3,499,A,20.14864374545776,27.84455713446059,1.007432187272888,0.43738128068041326,A,758,Correct
2,relearn,3,500,A,2.7029113653909924,62.05557463294508,0.13514556826954963,0.9747666869057668,A,519,Correct
2,relearn,3,501,D,66.09548208669547,44.048979888727615,3.304774104334774,0.6919197580827561,C,2822,Incorrect
2,relearn,3,502,B,76.06601940153244,76.94593630644823,3.8033009700766223,1.2086639411196296,B,901,Correct
2,relearn,3,503,D,44.00951177391682,36.90656921902409,2.200475588695841,0.5797270336384464,C,596,Incorrect
2,relearn,3,504,A,41.0622350832124,33.14450455167115,2.0531117541606196,0.5206326600320177,D,727,Incorrect
2,relearn,3,505,B,39.4224042286798,63.16549112547137,1.97112021143399,0.9922012144008606,C,426,Incorrect
2,relearn,3,506,B,45.10469293443382,92.60183148691435,2.255234646721691,1.4545861675412504,C,304,Incorrect
2,relearn,3,507,B,47.07835899619526,56.96556777584601,2.3539179498097633,0.8948130461608463,C,493,Incorrect
2,relearn,3,508,C,59.564981595802756,53.01157207667502,2.978249079790138,0.8327038269566402,C,863,Correct
2,relearn,3,509,A,48.383733300249965,40.18490668783916,2.4191866650124982,0.6312230381785343,D,1635,Incorrect
2,relearn,3,510,A,38.839085338083706,27.170847443983536,1.9419542669041852,0.42679867360913837,B,685,Incorrect
2,relearn,3,511,C,72.54034187442879,30.77179250165817,3.62701709372144,0.48336218630499395,C,1941,Correct
2,relearn,3,512,A,37.819126610493946,68.07010032737024,1.8909563305246975,1.0692426355879325,C,1215,Incorrect
2,relearn,3,513,D,32.69333444128915,6.936587434922597,1.6346667220644577,0.10895966063268049,A,647,Correct
2,relearn,3,514,B,44.151479008920816,56.790427370904744,2.207573950446041,0.8920619471132951,C,634,Incorrect
2,relearn,3,515,A,9.32725990052819,64.9782601923247,0.46636299502640954,1.0206761243162668,A,543,Incorrect
2,relearn,3,516,D,32.471265264887464,21.570971429607475,1.623563263244373,0.33883602687025083,C,990,Incorrect
2,relearn,3,517,C,73.73251379866943,36.54665853399225,3.686625689933471,0.5740735698182239,D,2158,Incorrect
2,relearn,3,518,A,2.6378213237305204,48.516445560012464,0.13189106618652602,0.7620945447481214,A,606,Incorrect
2,relearn,3,519,D,48.06515006041371,15.813183821056231,2.4032575030206855,0.24839291061047616,C,421,Incorrect
2,relearn,3,520,A,17.446439696503205,69.80928978123318,0.8723219848251602,1.0965617596452157,D,1347,Correct
2,relearn,3,521,C,67.82415136581737,75.56003046687188,3.3912075682908687,1.1868941830987283,D,5253,Incorrect
2,relearn,3,522,A,20.596033552697644,31.086961443666134,1.0298016776348822,0.4883128484692533,A,902,Incorrect
2,relearn,3,523,A,17.358910090174867,58.86593184439505,0.8679455045087434,0.9246638951453446,D,1661,Incorrect
2,relearn,3,524,D,47.4716434501369,2.872858531050966,2.373582172506845,0.045126756279762384,B,2119,Correct
2,relearn,3,525,A,41.90464373059032,65.98565288555355,2.095232186529516,1.0365002117379056,C,3414,Incorrect
2,relearn,3,526,D,62.662795202567615,39.64768624415963,3.1331397601283806,0.622784399182425,A,941,Incorrect
2,relearn,3,527,B,69.84310252696878,69.70198593098385,3.4921551263484387,1.09487623470699,C,829,Incorrect
2,relearn,3,528,B,61.603513534449945,86.85771353238388,3.080175676722497,1.3643577737047201,B,983,Incorrect
2,relearn,3,529,A,49.71992855525566,59.24361263262368,2.485996427762783,0.9305964910938501,D,468,Incorrect
2,relearn,3,530,B,72.59901912288758,67.67006308865578,3.629950956144379,1.0629588653363942,C,1296,Incorrect
2,relearn,3,531,A,20.55164658180111,28.990000563878667,1.0275823290900554,0.45537386399522584,A,899,Correct
2,relearn,3,532,B,40.59562749097503,61.24617558377646,2.029781374548752,0.9620526763723134,A,2527,Incorrect
2,relearn,3,533,D,73.60224139422182,34.53997820736872,3.6801120697110914,0.5425527089571056,C,1078,Correct
2,relearn,3,534,A,19.869654342651135,68.5190045083683,0.9934827171325566,1.0762940059738788,A,2003,Correct
2,relearn,3,535,D,41.85677460831278,10.142962984324104,2.092838730415639,0.15932528998592904,B,3591,Incorrect
2,relearn,3,536,D,42.30900421104051,23.253078070264156,2.115450210552025,0.365258496194459,C,1652,Incorrect
2,relearn,3,537,B,59.76718835705446,90.52275321751537,2.9883594178527226,1.4219280824543405,B,1175,Correct
2,relearn,3,538,C,60.85306101640319,60.091768706187025,3.0426530508201597,0.9439192955428709,B,923,Incorrect
2,relearn,3,539,B,52.657488678892335,58.51731614310053,2.6328744339446164,0.9191878525147802,C,2014,Incorrect
2,relearn,3,540,C,56.37410560567737,47.881791289681615,2.8187052802838686,0.7521254187819175,B,463,Incorrect
2,relearn,3,541,D,49.10510384462702,1.2405055443046784,2.455255192231351,0.019485815523624928,B,884,Incorrect
2,relearn,3,542,C,64.94514571894882,31.03297491246823,3.247257285947441,0.4874648300202328,C,884,Correct
2,relearn,3,543,D,48.78245106094959,23.397101654538655,2.4391225530474796,0.36752081336596115,C,905,Incorrect
2,relearn,3,544,A,25.662494080618583,67.27929070948947,1.283124704030929,1.0568206271583207,D,1747,Correct
2,relearn,3,545,C,72.67003090268734,24.44705549603322,3.6335015451343673,0.38401344974119966,C,2391,Correct
2,relearn,3,546,C,59.78724252457656,39.58269911799468,2.989362126228828,0.6217635837917362,B,1695,Incorrect
2,relearn,3,547,B,42.544616049728724,86.343949340626,2.127230802486436,1.3562875846521996,B,2125,Correct
2,relearn,3,548,D,49.3127970030421,45.91238002546312,2.465639850152105,0.7211899789840885,C,1317,Incorrect
2,relearn,3,549,B,47.95929579626322,70.6743789299202,2.397964789813161,1.1101505482162928,D,1006,Incorrect
2,relearn,3,550,D,69.13168778832178,24.150374735182528,3.456584389416089,0.37935319924744987,B,1764,Correct
2,relearn,3,551,A,23.503916892127215,66.31639728885227,1.1751958446063608,1.041695532676002,A,1327,Correct
2,relearn,3,552,A,38.9302547322264,38.32732997090134,1.94651273661132,0.6020442913414777,B,812,Correct
2,relearn,3,553,A,34.22503368366931,49.83793727495123,1.7112516841834655,0.7828524880652784,A,792,Incorrect
2,relearn,3,554,C,62.50387425781416,36.49505711985104,3.125193712890708,0.5732630167003196,C,630,Correct
2,relearn,3,555,D,59.664570562381215,32.7378845550284,2.9832285281190605,0.5142454880607399,C,547,Incorrect
2,relearn,3,556,C,85.78032185881725,40.817066816904855,4.289016092940862,0.6411529862653601,C,879,Incorrect
2,relearn,3,557,D,55.50873133465816,45.52838316856051,2.775436566732908,0.7151581704608544,C,571,Incorrect
2,relearn,3,558,D,67.70690703530238,21.8810164867442,3.385345351765119,0.34370620323916357,B,1289,Incorrect
2,relearn,3,559,A,38.40504431609701,50.386278045422124,1.9202522158048507,0.7914658047461541,D,1530,Incorrect
2,relearn,3,560,D,37.617683195175495,9.337985017895024,1.8808841597587747,0.1466807256577528,D,1397,Incorrect
2,relearn,3,561,A,6.437751227691557,63.10074943101606,0.32188756138457786,0.991184254242452,A,701,Incorrect
2,relearn,3,562,C,80.47210405729734,45.113646636180654,4.023605202864867,0.7086435042443551,C,703,Incorrect
2,relearn,3,563,B,38.69021114419135,59.269419306937735,1.9345105572095675,0.9310018613860432,C,923,Incorrect
2,relearn,3,564,A,9.567999572019753,50.22228409385708,0.4783999786009876,0.7888897937788046,A,750,Correct
2,relearn,3,565,B,30.889771062450755,75.23105675654111,1.5444885531225379,1.1817266761407317,B,1015,Incorrect
2,relearn,3,566,C,75.15310730181287,34.088912855728154,3.7576553650906432,0.5354673909820912,D,1341,Incorrect
2,relearn,3,567,A,14.0772827636133,71.92252047792498,0.703864138180665,1.129756309805553,D,6318,Incorrect
2,relearn,3,568,B,39.50107474725931,61.028681608805925,1.9750537373629655,0.9586362890024759,B,982,Correct
2,relearn,3,569,D,43.51757147721223,46.646031529747134,2.1758785738606115,0.7327141498648573,C,1516,Incorrect
2,relearn,3,570,B,69.77740868757643,68.28079750845188,3.4888704343788213,1.0725522591690235,C,753,Incorrect
2,relearn,3,571,C,101.76916067088067,51.38862026031432,5.088458033544033,0.8072105594395954,C,994,Incorrect
2,relearn,3,572,A,24.23281014109875,72.3420765570693,1.2116405070549374,1.1363466812855965,B,10152,Incorrect
2,relearn,3,573,C,70.05645052470798,66.0125894898953,3.5028225262353994,1.0369233309294694,B,2485,Incorrect
2,relearn,3,574,D,71.26487538869233,35.749168756647435,3.5632437694346164,0.5615466296891268,C,1629,Incorrect
2,relearn,3,575,C,77.56577741766024,72.99385283728684,3.878288870883012,1.146584759154174,C,670,Incorrect
2,relearn,3,576,A,20.674443187833376,36.55013912776609,1.0337221593916688,0.574128242857374,A,1492,Correct
2,relearn,3,577,D,46.45778115395244,1.0927476063178965,2.322889057697622,0.017164839261180675,B,1118,Incorrect
2,relearn,3,578,B,53.14059960756601,68.01499797321212,2.657029980378301,1.0683770898328393,C,716,Incorrect
2,relearn,3,579,B,34.50196085325547,53.47187844573985,1.7250980426627733,0.8399343024939137,A,709,Incorrect
2,relearn,3,580,A,7.955904381659121,47.61845224343155,0.39779521908295606,0.7479888987164047,A,743,Correct
2,relearn,3,581,A,48.533873210241374,49.732998576222556,2.426693660512069,0.7812041148402622,D,1620,Incorrect
2,relearn,3,582,D,38.945661621354915,44.43986378843374,1.947283081067746,0.6980597480213725,D,925,Correct
2,relearn,3,583,B,33.41789510148788,70.47672897659837,1.670894755074394,1.1070458700096018,C,951,Incorrect
2,relearn,3,584,D,38.594438740693626,10.209452708193535,1.9297219370346812,0.16036970812616613,D,1222,Incorrect
2,relearn,3,585,C,75.49100731754186,64.64288331567491,3.7745503658770927,1.0154080366569325,D,566,Correct
2,relearn,3,586,B,67.53932807362396,93.05027280737502,3.376966403681198,1.4616302673308774,D,813,Incorrect
2,relearn,3,587,B,61.2187177918904,56.12682441701642,3.06093588959452,0.8816380962891149,D,1229,Incorrect
2,relearn,3,588,A,23.10202898341284,70.70761317115787,1.155101449170642,1.1106725904568924,D,302,Incorrect
2,relearn,3,589,D,48.44429854929808,8.865206848206185,2.4222149274649043,0.13925434353439237,D,288,Correct
2,relearn,3,590,B,44.231372385352955,97.35503703604027,2.2115686192676476,1.5292493457119314,B,1597,Correct
2,relearn,3,591,A,28.533301509184305,53.14872137945919,1.4266650754592152,0.8348581631669988,D,1340,Incorrect
2,relearn,3,592,C,72.44474456491642,31.02786714904112,3.6222372282458206,0.4873845974599383,D,614,Incorrect
2,relearn,3,593,A,47.531036600943565,48.78184911308664,2.376551830047178,0.7662634940109939,D,278,Incorrect
2,relearn,3,594,A,35.97022397439638,64.87817501264196,1.7985111987198192,1.0191039899901442,D,405,Incorrect
2,relearn,3,595,B,32.52265605733781,95.22304394233677,1.6261328028668907,1.4957600765085162,D,271,Incorrect
2,relearn,3,596,B,29.43127535036786,71.60540907232132,1.471563767518393,1.124775135494483,D,828,Incorrect
2,relearn,3,597,C,52.630246401434235,36.8482058857208,2.631512320071712,0.5788102645427232,D,501,Incorrect
2,relearn,3,598,D,53.683449945625945,25.772017871580225,2.6841724972812973,0.4048259100677064,D,1870,Incorrect
2,relearn,3,599,C,50.279252536553486,51.601293792487795,2.5139626268276745,0.8105512274710412,D,567,Incorrect
2,relearn,3,600,D,54.95081891366019,38.15165501393264,2.7475409456830096,0.5992847955703148,D,652,Correct
2,relearn,3,601,B,44.27833270318915,63.714578407948416,2.2139166351594577,1.000826257264908,C,1543,Incorrect
2,relearn,3,602,C,67.36635960441136,59.430855732240175,3.3683179802205676,0.9335376988248028,C,895,Correct
2,relearn,3,603,C,58.45332239984931,67.41043258360564,2.9226661199924653,1.0588805988998276,B,940,Incorrect
2,relearn,3,604,A,27.32671864628135,58.48769738537155,1.3663359323140674,0.918722602156331,A,947,Correct
2,relearn,3,605,D,43.14812650910409,16.249731648161024,2.1574063254552045,0.25525018784334114,D,975,Correct
2,relearn,3,606,D,51.116317643757405,46.57233777458154,2.5558158821878703,0.731556571065639,B,973,Incorrect
2,relearn,3,607,D,46.68349305368149,25.984946436373672,2.3341746526840748,0.408170584142179,A,1032,Incorrect
2,relearn,3,608,D,73.93299275210147,30.59802772338697,3.6966496376050735,0.4806326955506467,D,1308,Correct
2,relearn,3,609,B,31.01602014673132,91.46524558936204,1.550801007336566,1.43673271801163,B,876,Correct
2,relearn,3,610,A,13.204080598039189,50.86322299926724,0.6602040299019595,0.798957638561987,A,620,Correct
2,relearn,3,611,D,58.803846485497566,18.7070953505324,2.9401923242748786,0.29385036661618175,D,1503,Correct
2,relearn,3,612,C,69.91734467330915,37.30447370882129,3.495867233665457,0.5859773027483327,C,1078,Correct
2,relearn,3,613,D,53.50348133035641,9.402159607819833,2.6751740665178203,0.14768877775902736,D,760,Correct
2,relearn,3,614,B,42.41049268834044,80.41958008433133,2.120524634417022,1.2632278099885568,B,732,Correct
2,relearn,3,615,D,55.256889769662415,21.253107873124613,2.762844488483121,0.3338430378007984,C,1383,Incorrect
2,relearn,3,616,D,28.192764921418437,32.734918422087816,1.409638246070922,0.5141988961534614,A,1372,Incorrect
2,relearn,3,617,B,69.69346435863625,58.149010981228635,3.484673217931812,0.9134025285607005,B,927,Correct
2,relearn,3,618,A,37.10017044511916,70.43234089950849,1.855008522255958,1.106348623725139,C,1293,Incorrect
2,relearn,3,619,A,37.40807843081365,67.11949024850608,1.8704039215406825,1.0543104873869924,C,814,Incorrect
2,relearn,3,620,A,39.79642311066256,39.60607275029252,1.9898211555331278,0.6221307359493093,D,782,Incorrect
2,relearn,3,621,B,34.54106062722859,95.8427398560919,1.7270530313614296,1.50549423715908,B,1086,Correct
2,relearn,3,622,B,28.952750532008537,80.04804411663504,1.4476375266004269,1.2573917366552616,C,933,Incorrect
2,relearn,3,623,A,10.20469362058165,40.77658465735618,0.5102346810290825,0.6405170939901622,A,764,Correct
2,relearn,3,624,C,59.493994039160796,63.11958873921367,2.9746997019580395,0.9914801814036134,D,662,Incorrect
2,relearn,3,625,C,79.16372246088402,60.133349527430966,3.9581861230442006,0.9445724455556218,B,679,Incorrect
2,relearn,3,626,D,29.871379061944843,8.622746394834891,1.4935689530972422,0.13544578363890586,B,2686,Incorrect
2,relearn,3,627,C,91.37156131852726,59.15718000409154,4.568578065926363,0.9292388105397151,C,989,Correct
2,relearn,3,628,C,75.84197760248097,29.9619221140081,3.792098880124048,0.4706407720039871,D,829,Incorrect
2,relearn,3,629,D,55.80763910789892,28.078975772938268,2.7903819553949463,0.44106352004294325,C,640,Incorrect
2,relearn,3,630,D,50.5605601782734,31.839314235126942,2.5280280089136697,0.5001307784820587,C,478,Incorrect
2,relearn,3,631,A,38.50900084632668,68.75727740255157,1.9254500423163339,1.0800367878434574,C,955,Incorrect
2,relearn,3,632,D,36.18141166186009,37.29550812780183,1.8090705830930045,0.5858364717310033,B,878,Incorrect
2,relearn,3,633,B,57.664807622500106,65.48581442057058,2.8832403811250056,1.0286487674900453,C,1109,Incorrect
2,relearn,3,634,D,53.87473304588664,41.42642245230475,2.693736652294332,0.6507247222033393,A,598,Incorrect
2,relearn,3,635,D,29.45206670383846,17.592654484096837,1.472603335191923,0.27634477042191075,A,399,Incorrect
2,relearn,3,636,B,46.93148575809799,96.73710378733509,2.3465742879049,1.5195428729392264,B,1435,Correct
2,relearn,3,637,D,28.994308299856,24.30452672023667,1.4497154149928002,0.3817746129663617,D,917,Correct
2,relearn,3,638,D,51.38473920303309,1.7258134040717756,2.5692369601516543,0.027109013558493416,D,888,Correct
2,relearn,3,639,C,82.78594275064322,38.179410614530426,4.139297137532161,0.5997207795249848,C,924,Correct
2,relearn,3,640,D,35.10859451460783,16.46730654363163,1.7554297257303915,0.2586678463094213,D,686,Correct
2,relearn,3,641,B,31.518686481427007,76.48356173213155,1.5759343240713504,1.2014009782902297,B,854,Correct
2,relearn,3,642,A,29.603223570623754,70.72477677673427,1.4801611785311877,1.110942195742832,B,758,Incorrect
2,relearn,3,643,B,32.63887248367098,81.22010608947564,1.631943624183549,1.2758024430724015,B,1165,Correct
2,relearn,3,644,C,66.67377786307014,70.25612849979908,3.333688893153507,1.1035806858231465,C,719,Correct
2,relearn,3,645,C,69.86862691498344,44.32790201992207,3.493431345749172,0.6963010566741766,D,731,Incorrect
2,relearn,3,646,D,39.17068679546598,1.4761381668213467,1.9585343397732993,0.023187124102847234,D,1714,Correct
2,relearn,3,647,D,42.3020117219487,43.14548726387726,2.115100586097435,0.6777277291187438,C,1459,Incorrect
2,relearn,3,648,A,35.86660678558173,36.92594323344272,1.7933303392790865,0.5800313599452869,C,687,Incorrect
2,relearn,3,649,B,40.69467361580888,99.6522393076556,2.034733680790444,1.5653337146135142,B,756,Correct
2,relearn,3,650,C,90.48759821119233,37.09041045075368,4.524379910559617,0.5826148049535893,C,704,Correct
2,relearn,3,651,B,58.61468094182588,72.29599291682536,2.930734047091294,1.1356228011573914,B,2197,Correct
2,relearn,3,652,A,45.45062940554064,42.173240828571025,2.272531470277032,0.6624557178255592,C,1279,Incorrect
2,relearn,3,653,D,30.48769894841323,28.846287134849472,1.5243849474206614,0.45311641873092423,B,669,Incorrect
2,relearn,3,654,A,0.9624042709810006,48.70130559375874,0.04812021354905003,0.7649983193679198,A,663,Correct
2,relearn,3,655,D,23.71033491092921,22.322183891309543,1.1855167455464604,0.3506360446250924,A,804,Incorrect
2,relearn,3,656,C,70.62593353238458,56.34287682898777,3.531296676619229,0.8850318396403126,B,956,Incorrect
2,relearn,3,657,A,34.770260501329886,66.80196051442105,1.7385130250664944,1.049322741987503,C,1550,Incorrect
2,relearn,3,658,D,25.048042398545505,22.269853576798877,1.2524021199272752,0.3498140419669587,D,832,Correct
2,relearn,3,659,B,31.654727391941435,88.15980432617414,1.5827363695970718,1.3848109680651117,B,939,Correct
2,relearn,3,660,B,72.3626350460328,63.33816354822853,3.61813175230164,0.9949135464749178,C,1344,Incorrect
2,relearn,3,661,C,62.55048587151883,44.370376812722064,3.1275242935759415,0.6969682491592926,B,739,Incorrect
2,relearn,3,662,C,71.79380959476222,58.59826371652977,3.5896904797381115,0.9204593740248362,C,1183,Correct
2,relearn,3,663,B,33.97277440720796,61.705801780214415,1.6986387203603979,0.969272467782948,B,1534,Correct
2,relearn,3,664,C,73.85807385642738,33.97101343052591,3.692903692821369,0.533615431141702,C,1829,Correct
2,relearn,3,665,D,43.55524220991934,44.14709979520335,2.1777621104959675,0.6934610219695316,B,781,Incorrect
2,relearn,3,666,A,1.130660235207067,44.69169787176935,0.056533011760353344,0.7020155485520259,A,597,Correct
2,relearn,3,667,D,57.30045092773982,34.886324981512836,2.8650225463869905,0.547993111363334,C,797,Incorrect
2,relearn,3,668,B,43.0724513422734,66.71717162168294,2.15362256711367,1.0479908811748426,C,640,Incorrect
2,relearn,3,669,D,66.22060489249222,12.608504541683873,3.3110302446246114,0.198053926204538,D,627,Correct
2,relearn,3,670,A,19.854147847146784,43.76609518174291,0.9927073923573392,0.6874762154963759,C,1252,Incorrect
2,relearn,3,671,A,33.233928709329376,63.67753524625327,1.6616964354664687,1.000244384641672,B,2007,Incorrect
2,relearn,3,672,C,77.31219535013197,53.6898089400244,3.8656097675065983,0.8433575466931013,C,995,Correct
2,relearn,3,673,A,23.08688897793903,28.422214887548655,1.1543444488969514,0.4464551074473665,D,759,Incorrect
2,relearn,3,674,A,23.48237218981287,29.588312652706488,1.1741186094906437,0.4647721283093031,B,829,Incorrect
2,relearn,3,675,D,66.60218948014932,22.994559251930216,3.330109474007466,0.3611976920919958,B,695,Incorrect
2,relearn,3,676,C,75.69801995687237,62.002798323242345,3.7849009978436188,0.9739376785715386,B,678,Incorrect
2,relearn,3,677,A,21.7624206512212,51.83856618284525,1.0881210325610597,0.8142782934632747,B,626,Incorrect
2,relearn,3,678,D,54.18663685330454,34.80543139739931,2.709331842665227,0.546722437915466,B,281,Incorrect
2,relearn,3,679,D,37.35206507949113,31.98745307384191,1.8676032539745566,0.5024577379191499,B,132,Incorrect
2,relearn,3,680,B,43.845190502857726,88.29731182579901,2.192259525142886,1.386970930818287,B,341,Correct
2,relearn,3,681,C,98.41322581281605,59.011732893987116,4.920661290640803,0.9269541326767654,C,701,Correct
2,relearn,3,682,D,70.36984304789813,28.104105664984747,3.5184921523949066,0.4414582594641369,D,540,Correct
2,relearn,3,683,A,27.53969836019672,65.66559901773743,1.376984918009836,1.0314728173384853,B,2847,Incorrect
2,relearn,3,684,D,65.00588211429042,9.305784707166481,3.250294105714521,0.1461749243596123,B,1654,Incorrect
2,relearn,3,685,D,74.81932953883555,29.40119595392774,3.740966476941777,0.4618329060780667,C,1380,Incorrect
2,relearn,3,686,A,11.375099093980554,58.03602910796999,0.5687549546990277,0.9116278134456095,A,702,Correct
2,relearn,3,687,C,69.78362065912494,26.461981535188535,3.489181032956247,0.4156638339518853,B,704,Incorrect
2,relearn,3,688,A,33.016317306782454,62.230107721163684,1.650815865339123,0.9775082462445465,D,254,Incorrect
2,relearn,3,689,A,23.68912582412627,66.13958357622057,1.1844562912063135,1.0389181493727135,A,302,Correct
2,relearn,3,690,D,50.50486724785277,12.917405115712945,2.5252433623926382,0.202906125074835,B,779,Incorrect
2,relearn,3,691,D,47.370335928838735,43.46280916595599,2.3685167964419365,0.6827122099007124,C,671,Incorrect
2,relearn,3,692,B,56.93043244386455,72.87338124217521,2.8465216221932277,1.1446923957633293,C,734,Incorrect
2,relearn,3,693,C,83.47342937519082,50.186360962523814,4.17367146875954,0.7883255145513519,B,278,Incorrect
2,relearn,3,694,C,83.38763381156113,40.131087888059085,4.1693816905780565,0.6303776544484637,C,548,Correct
2,relearn,3,695,A,36.805184173732215,26.62800743346404,1.8402592086866107,0.4182717626635252,D,824,Incorrect
2,relearn,3,696,C,73.00347076903972,69.48284678490351,3.650173538451986,1.0914340050497904,C,623,Correct
2,relearn,3,697,C,60.063093572675875,52.87465410011714,3.0031546786337935,0.8305531244101472,B,667,Incorrect
2,relearn,3,698,C,73.1117953323477,72.02699666682896,3.6555897666173847,1.1313974179432322,B,689,Incorrect
2,relearn,3,699,A,16.89416255515133,74.48446690608019,0.8447081277575664,1.169999270193468,A,541,Correct
2,relearn,3,700,B,25.499237065205506,74.23383044456816,1.2749618532602753,1.1660622818624282,A,677,Incorrect
2,relearn,3,701,C,85.91275042821462,56.007265230000684,4.295637521410731,0.8797600649711261,C,852,Correct
2,relearn,3,702,D,63.80252630318751,10.770180708360424,3.1901263151593757,0.16917760295609813,D,1013,Correct
2,relearn,3,703,B,49.78649319275484,76.93024457574987,2.489324659637742,1.2084174559902092,B,775,Correct
2,relearn,3,704,A,16.451939564659387,40.671119089228036,0.8225969782329693,0.6388604447199719,A,856,Correct
2,relearn,3,705,A,36.42419433118084,32.67477346959805,1.8212097165590422,0.5132541414489995,A,964,Correct
2,relearn,3,706,B,33.430456871905285,81.50416190699663,1.6715228435952643,1.280264381420068,B,1085,Correct
2,relearn,3,707,B,57.61915739129072,99.29520366785619,2.880957869564536,1.5597254118981962,D,2135,Incorrect
2,relearn,3,708,A,16.072993135888552,42.84175191399164,0.8036496567944276,0.6729566653995629,A,1117,Correct
2,relearn,3,709,B,50.8655844878228,77.51221608169207,2.54327922439114,1.2175590430285423,C,839,Incorrect
2,relearn,3,710,A,37.599647424939626,51.994618251805434,1.8799823712469814,0.8167295536303887,B,971,Incorrect
2,relearn,3,711,B,68.47682848147541,63.00324956360721,3.4238414240737707,0.9896527299065638,C,1294,Incorrect
2,relearn,3,712,B,43.986914351574924,49.21983721577407,2.199345717578746,0.7731433950398066,D,1021,Incorrect
2,relearn,3,713,C,75.53843820922879,44.506537753165986,3.7769219104614393,0.6991070602103152,D,249,Incorrect
2,relearn,3,714,A,41.570175507650404,55.104156852021205,2.07850877538252,0.8655740717428474,D,444,Incorrect
2,relearn,3,715,C,96.09563244676954,33.799352519843566,4.804781622338477,0.530918987862161,D,248,Incorrect
2,relearn,3,716,D,44.73122998235625,19.24674559038296,2.2365614991178124,0.3023271727612942,D,1355,Correct
2,relearn,3,717,D,46.74495701070112,29.307227850973966,2.337247850535056,0.46035685856850994,D,728,Correct
2,relearn,3,718,B,67.46006485380363,79.23829427891103,3.373003242690181,1.244672215948065,B,973,Correct
2,relearn,3,719,C,55.49238033410687,60.8142912504089,2.7746190167053437,0.9552686531277732,C,860,Correct
2,relearn,3,720,C,89.62981094739335,30.547434077810635,4.481490547369668,0.47983797242434195,B,3383,Incorrect
2,relearn,3,721,D,63.59812036765927,20.356102039858172,3.1799060183829635,0.31975290312071314,D,677,Correct
2,relearn,3,722,C,79.30126452875695,52.3545045701264,3.9650632264378474,0.8223826346992118,C,766,Correct
2,relearn,3,723,C,54.88802431927738,39.95236928652534,2.7444012159638693,0.6275703492202725,D,918,Incorrect
2,relearn,3,724,D,37.236623308284905,40.71794916703108,1.8618311654142452,0.6395960498619374,D,886,Correct
2,relearn,3,725,C,59.68879648534667,63.211896259206085,2.984439824267333,0.9929301445370099,C,470,Correct
2,relearn,3,726,C,74.80905160161088,42.409013058834695,3.7404525800805435,0.6661592193581434,C,719,Correct
2,relearn,3,727,B,32.5047662306508,86.87976460024494,1.6252383115325402,1.3647041510687001,B,985,Correct
2,relearn,3,728,D,42.4492298170577,25.019899285258226,2.122461490852885,0.3930116589406188,D,710,Correct
2,relearn,3,729,B,70.46279809757975,63.203034115757305,3.5231399048789878,0.9927909383132412,C,720,Incorrect
2,relearn,3,730,D,75.1005434646606,26.730238984511104,3.7550271732330303,0.4198776121121978,D,748,Correct
2,relearn,3,731,D,58.06757496347078,47.44880148750301,2.903378748173539,0.7453240308738995,B,929,Incorrect
2,relearn,3,732,A,38.06888206889678,64.60083219269906,1.9034441034448388,1.014747499161852,C,1356,Incorrect
2,relearn,3,733,A,24.795176724601657,55.938264849546165,1.2397588362300829,0.8786762095294721,A,982,Correct
2,relearn,3,734,C,57.36097780175867,69.64680944470294,2.8680488900879335,1.094009524487235,A,694,Incorrect
2,relearn,3,735,A,5.718240214273344,63.18802180388127,0.2859120107136672,0.9925551254697254,A,605,Correct
2,relearn,3,736,C,76.54763717287172,24.19916378755313,3.8273818586435855,0.3801195758899653,D,876,Incorrect
2,relearn,3,737,C,61.59281889370294,70.83039344966866,3.079640944685147,1.1126012185617684,C,689,Correct
2,relearn,3,738,D,45.99730193126645,37.02161458270199,2.2998650965633227,0.5815341619852468,C,1299,Incorrect
2,relearn,3,739,C,94.35138994456484,65.54792705939606,4.717569497228243,1.0296244305391913,D,679,Incorrect
2,relearn,3,740,A,30.580458975053745,71.81522104120232,1.5290229487526872,1.1280708541948417,B,719,Incorrect
2,relearn,3,741,B,30.28535758948744,87.92057794639608,1.5142678794743718,1.3810532088788334,A,1478,Incorrect
2,relearn,3,742,D,30.41840230735117,35.40657853396486,1.5209201153675584,0.5561652350552704,C,611,Incorrect
2,relearn,3,743,A,41.18387089397754,58.18656119118414,2.059193544698877,0.9139923658793853,B,600,Incorrect
2,relearn,3,744,B,57.29417457442645,99.45597336089403,2.8647087287213227,1.5622507763310343,B,1726,Correct
2,relearn,3,745,D,33.0787392632308,34.22086414795328,1.6539369631615402,0.5375400770335217,D,2018,Correct
2,relearn,3,746,A,24.073832136962395,25.002306867721593,1.2036916068481198,0.39273531789215893,C,1582,Incorrect
2,relearn,3,747,D,60.072283169152584,3.9199914359271837,3.003614158457629,0.06157508148621872,D,1053,Correct
2,relearn,3,748,A,38.53891924355966,48.77726805003372,1.926945962177983,0.7661915348408304,B,1061,Incorrect
2,relearn,3,749,C,53.06173050460605,50.63630529552349,2.653086525230302,0.7953932236067328,C,695,Correct
2,relearn,3,750,A,3.4859289037036625,47.438219952764705,0.1742964451851831,0.7451578165149116,A,630,Correct
2,relearn,3,751,C,100.75328486860528,48.19139224736587,5.037664243430264,0.7569886192529437,C,1292,Correct
2,relearn,3,752,B,46.914040857353434,62.811490697056904,2.345702042867672,0.9866405886744881,B,735,Correct
2,relearn,3,753,C,75.01047065686649,70.18001309858087,3.750523532843324,1.1023850678966858,C,667,Correct
2,relearn,3,754,D,72.47557386163422,26.579496692557004,3.6237786930817104,0.41750975772725646,B,726,Incorrect
2,relearn,3,755,C,83.99764170602695,73.51272589127996,4.199882085301348,1.1547351980270264,A,621,Incorrect
2,relearn,3,756,A,0.7462716821796995,44.78669797063227,0.03731358410898498,0.7035078066154162,A,608,Correct
2,relearn,3,757,C,66.40382530178907,39.630227765659356,3.320191265089454,0.6225101620434284,C,540,Correct
2,relearn,3,758,D,59.207412219152936,16.219058261862834,2.960370610957647,0.2547683714180656,D,860,Correct
2,relearn,3,759,D,66.75505870303456,34.17037601102677,3.3377529351517286,0.5367470112332129,C,543,Incorrect
2,relearn,3,760,D,61.496680624544105,23.707294715187775,3.0748340312272053,0.37239331456861025,C,471,Incorrect
2,relearn,3,761,B,54.66135116087449,84.90797744093919,2.7330675580437243,1.333731390798112,B,610,Correct
2,relearn,3,762,A,41.1819221803387,59.0221979774469,2.059096109016935,0.9271185178233475,D,1047,Incorrect
2,relearn,3,763,A,-0.6671063152974881,47.513468401913144,-0.0333553157648744,0.7463398163901055,A,612,Correct
2,relearn,3,764,D,53.36197283955693,41.527482772185024,2.6680986419778465,0.6523121739958658,B,527,Incorrect
2,relearn,3,765,D,41.235791389125424,50.29933554227439,2.0617895694562716,0.7901001151002861,B,317,Incorrect
2,relearn,3,766,B,47.85367872823287,59.627769966429895,2.3926839364116437,0.9366308203823913,B,334,Correct
2,relearn,3,767,A,19.149428660826196,47.94085827089391,0.9574714330413099,0.753053240753149,A,836,Correct
2,relearn,3,768,B,30.453459958279648,86.21870989180503,1.5226729979139824,1.3543203279904217,C,686,Incorrect
2,relearn,3,769,B,43.036870704821624,49.742297191566735,2.151843535241081,0.7813501771485313,B,710,Correct
2,relearn,3,770,D,43.45135905112799,41.56821291036027,2.1725679525563995,0.6529519615102211,C,878,Incorrect
2,relearn,3,771,A,43.51184193654458,53.15156349174684,2.175592096827229,0.8349028069624167,D,274,Incorrect
2,relearn,3,772,D,69.70266266784306,34.112940057705174,3.485133133392153,0.5358448093881778,B,324,Incorrect
2,relearn,3,773,C,65.19063189046558,41.217883792125164,3.259531594523279,0.6474490045892911,C,495,Correct
2,relearn,3,774,D,66.35731955582295,27.747303588360534,3.317865977791148,0.4358536255505958,D,660,Correct
2,relearn,3,775,D,57.9029729544512,42.75620983855425,2.8951486477225603,0.6716129736207282,C,662,Incorrect
2,relearn,3,776,C,79.28493222170236,70.38841779520875,3.964246611085118,1.1056586812161844,C,958,Correct
2,relearn,3,777,A,19.246733393527528,38.415238574362405,0.9623366696763764,0.6034251564555808,A,540,Correct
2,relearn,3,778,B,36.50244829264201,61.148435720172046,1.8251224146321006,0.9605173821850008,C,1776,Incorrect
2,relearn,3,779,A,10.661743117757094,33.216464855046446,0.5330871558878547,0.5217630098341873,A,974,Correct
2,relearn,3,780,D,38.639665488317185,22.516744951613223,1.9319832744158592,0.3536922026137158,C,1524,Incorrect
2,relearn,3,781,B,40.300277296850716,59.5670758654943,2.0150138648425355,0.9356774396743137,C,1477,Incorrect
2,relearn,3,782,D,55.12030017110678,20.720134913110577,2.756015008555339,0.3254711181220879,D,1669,Correct
2,relearn,3,783,A,18.014248335694603,30.690522985672665,0.9007124167847301,0.4820856077330896,A,808,Correct
2,relearn,3,784,C,94.30495497990766,64.61924451892669,4.715247748995384,1.015036719305913,C,1044,Correct
2,relearn,3,785,C,86.85184901930549,26.792988373391797,4.342592450965275,0.420863277207822,D,1126,Incorrect
2,relearn,3,786,D,34.99480838811809,19.74562988794274,1.7497404194059043,0.3101636289823198,A,1499,Incorrect
2,relearn,3,787,A,14.765355316213862,63.77876153168012,0.7382677658106931,1.0018344434149078,B,745,Incorrect
2,relearn,3,788,A,49.78627036372986,50.98573302362548,2.4893135181864934,0.8008820215245616,C,723,Incorrect
2,relearn,3,789,B,46.39557211705754,49.405464183116635,2.319778605852877,0.7760592166243643,B,396,Correct
2,relearn,3,790,B,50.953188135432,101.3409652412895,2.5476594067716003,1.5918601595486683,B,671,Correct
2,relearn,3,791,C,83.79653712482785,59.59456683989569,4.1898268562413925,0.936109266890411,D,707,Incorrect
2,relearn,3,792,D,58.142073194191624,31.95011455232967,2.9071036597095814,0.5018712257947562,D,2224,Correct
2,relearn,3,793,D,45.68060489332722,11.819316551632156,2.284030244666361,0.18565739024529912,D,996,Correct
2,relearn,3,794,C,89.34634549848742,55.63473906517669,4.467317274924372,0.8739084376577207,C,759,Correct
2,relearn,3,795,D,39.000265095858694,12.577792179429322,1.9500132547929347,0.19757149754637154,D,692,Correct
2,relearn,3,796,B,33.91616695216097,87.44369152631918,1.6958083476080485,1.373562294509282,B,836,Correct
2,relearn,3,797,B,60.22974753462314,66.11819377920834,3.011487376731157,1.0385821592269362,B,2392,Correct
2,relearn,3,798,C,74.2308707124259,69.3692836158604,3.7115435356212947,1.089650158961869,C,1068,Correct
2,relearn,3,799,A,1.1882114208055796,45.663596122941456,0.059410571040278984,0.7172820905816211,A,569,Correct
2,relearn,3,800,C,88.21469056875016,40.53828123989311,4.410734528437508,0.6367738326620256,C,1283,Correct
2,relearn,3,801,B,61.8240066203647,51.782823495013886,3.0912003310182348,0.8134026893703626,B,1991,Correct
2,relearn,3,802,C,71.13506651391005,36.97657674288165,3.556753325695502,0.5808267092516809,C,1276,Correct
2,relearn,3,803,B,56.77602832370635,94.48440067703878,2.8388014161853174,1.4841574952290977,B,1223,Correct
2,relearn,3,804,D,47.30567243674505,19.493347389508987,2.3652836218372526,0.306200784763776,D,900,Correct
2,relearn,3,805,C,96.23374448752269,56.11199490453287,4.811687224376135,0.8814051548517419,C,1096,Correct
2,relearn,3,806,B,65.85807185242969,86.35628302206717,3.2929035926214847,1.356481321667236,C,1342,Incorrect
2,relearn,3,807,D,69.86381184578804,31.974491338585366,3.493190592289402,0.5022541354578514,B,830,Incorrect
2,relearn,3,808,A,39.79450731716082,69.08039355913812,1.9897253658580412,1.0851122845624,C,582,Incorrect
2,relearn,3,809,B,37.8912751555045,59.92663608043395,1.894563757775225,0.9413253983232017,C,780,Incorrect
2,relearn,3,810,B,64.23065888515372,67.77725491185416,3.211532944257686,1.0646426305578187,D,680,Incorrect
2,relearn,3,811,D,47.266495288802304,28.15525627785479,2.363324764440115,0.4422617314122326,D,1020,Correct
2,relearn,3,812,C,90.03478703290253,35.10679770666013,4.501739351645126,0.5514562888315323,C,877,Correct
2,relearn,3,813,B,35.73970657023743,55.0467753293417,1.7869853285118718,0.8646727248923387,B,1615,Correct
2,relearn,3,814,B,64.38351317105852,76.71477476196797,3.2191756585529263,1.2050328640699712,B,812,Correct
2,relearn,3,815,D,58.128800775480954,6.4135265140960875,2.906440038774048,0.10074343890143811,D,757,Correct
2,relearn,3,816,C,99.26371288478188,51.41274555903377,4.963185644239093,0.807589518745709,C,984,Correct
2,relearn,3,817,D,36.62444450481166,7.635187515654643,1.8312222252405832,0.11993324503980565,D,756,Correct
2,relearn,3,818,B,47.436785479012514,83.35781079966546,2.3718392739506258,1.3093814301377846,C,918,Incorrect
2,relearn,3,819,B,30.75772444553992,78.58191764356467,1.537886222276996,1.2343618758701045,B,2228,Correct
2,relearn,3,820,C,77.48903298200136,73.89225483125409,3.8744516491000685,1.1606968246752638,C,1095,Correct
2,relearn,3,821,A,27.39992918822691,56.12067285379848,1.3699964594113456,0.8815414677600473,B,4111,Incorrect
2,relearn,3,822,A,25.128930460254583,37.31100380306148,1.256446523012729,0.586079877228794,A,804,Correct
2,relearn,3,823,A,31.905649220638225,45.79469759469595,1.5952824610319112,0.7193414276843147,A,974,Correct
2,relearn,3,824,B,63.11030544495462,70.94907239013598,3.1555152722477313,1.114465422999308,C,2350,Incorrect
2,relearn,3,825,D,44.940912857949,28.90023212063189,2.24704564289745,0.4539637845860846,D,877,Correct
2,relearn,3,826,B,58.65292607792134,85.16889970478081,2.9326463038960675,1.3378299481343263,C,815,Incorrect
2,relearn,3,827,B,75.11868924756027,68.93505402701518,3.7559344623780135,1.0828292965304318,C,947,Incorrect
2,relearn,3,828,A,23.997794304765193,74.63566610963221,1.1998897152382597,1.1723743017290063,A,1182,Correct
2,relearn,3,829,A,24.98229149622674,75.68820427044072,1.249114574811337,1.1889075324971008,A,719,Correct
2,relearn,3,830,D,56.57068865830186,26.16214657614656,2.828534432915093,0.41095403742880704,C,2638,Incorrect
2,relearn,3,831,B,64.50452907140212,82.03824238628886,3.2252264535701056,1.2886536979709193,B,1019,Correct
2,relearn,3,832,C,54.84550495414226,56.77413928142086,2.742275247707113,0.8918060944019773,C,760,Correct
2,relearn,3,833,A,5.933299464304522,38.027123458226,0.2966649732152261,0.5973286584675744,A,550,Correct
2,relearn,3,834,D,53.45459612414861,20.424896142153138,2.6727298062074305,0.32083351835261403,D,902,Correct
2,relearn,3,835,B,55.51355732338957,96.27453286333947,2.7756778661694783,1.512276825856282,C,302,Incorrect
2,relearn,3,836,A,40.094628785036434,70.53502745633534,2.0047314392518216,1.1079616203878873,B,1637,Incorrect
2,relearn,3,837,B,41.531410660540075,89.17271699668088,2.0765705330270037,1.4007217630870716,B,532,Correct
2,relearn,3,838,A,42.319089275373784,34.26846754451753,2.115954463768689,0.5382878294381827,D,925,Incorrect
2,relearn,3,839,C,55.07414392022477,41.12414825147651,2.7537071960112383,0.6459766101598807,C,1200,Correct
2,relearn,3,840,C,83.70696219633109,64.7524519876505,4.185348109816555,1.0171291373316431,C,925,Correct
2,relearn,3,841,C,73.94298549388408,26.47614654571755,3.697149274694204,0.4158863374169651,D,957,Incorrect
2,relearn,3,842,A,25.903857865857155,55.4647230427551,1.2951928932928578,0.8712378322225596,A,1414,Correct
2,relearn,3,843,A,14.5660700771315,27.09415658277868,0.7283035038565749,0.42559401637834515,A,846,Correct
2,relearn,3,844,B,75.2920978176087,66.41385843443277,3.764604890880435,1.0432264487708325,B,1451,Correct
2,relearn,3,845,B,54.642173268940795,77.03699687825842,2.7321086634470397,1.2100943172367824,B,887,Correct
2,relearn,3,846,D,38.28850516987471,43.06012910426985,1.9144252584937356,0.676386926283011,C,829,Incorrect
2,relearn,3,847,C,50.20828695692879,50.52141650545954,2.5104143478464396,0.793588554712509,C,1040,Correct
2,relearn,3,848,C,76.18747474904846,26.15810133141495,3.8093737374524235,0.41089049487315304,C,900,Correct
2,relearn,3,849,C,89.38841675608076,43.59564565821228,4.469420837804038,0.6847988006417174,C,847,Correct
2,relearn,3,850,D,50.42445949743594,48.68254052514524,2.521222974871797,0.7647035583594184,C,1531,Incorrect
2,relearn,3,851,B,35.874039932998244,58.62479839136324,1.7937019966499121,0.9208761797224473,B,903,Correct
2,relearn,3,852,A,19.760324495920507,71.49890138448116,0.9880162247960255,1.1231021166461355,A,1070,Correct
2,relearn,3,853,C,69.46801752425425,42.136942872565896,3.473400876212713,0.6618855508659292,C,1063,Correct
2,relearn,3,854,A,46.28944810481663,63.05044906259775,2.3144724052408314,0.9903941379029727,B,1058,Incorrect
2,relearn,3,855,B,42.21242140880539,56.81477206355522,2.1106210704402697,0.8924443526512185,C,1119,Incorrect
2,relearn,3,856,A,18.728795986562574,50.63438396408011,0.9364397993281287,0.7953630434029945,A,748,Correct
2,relearn,3,857,C,66.67065991459779,70.96955134221632,3.333532995729889,1.114787105626352,B,2670,Incorrect
2,relearn,3,858,D,62.035467910457356,4.826988371351671,3.1017733955228675,0.07582215603200886,D,987,Correct
2,relearn,3,859,B,51.444295928410654,54.69065617382924,2.572214796420533,0.859078818278536,C,748,Incorrect
2,relearn,3,860,B,65.8824169998267,70.45095001923177,3.2941208499913355,1.1066409350942013,B,1160,Correct
2,relearn,3,861,D,53.593932705512415,31.535001392324457,2.679696635275621,0.4953506435253521,D,965,Correct
2,relearn,3,862,B,59.06379719319836,70.45666145405292,2.9531898596599184,1.106730650102579,B,1005,Correct
2,relearn,3,863,C,57.696539522547454,42.17796820216252,2.884826976127373,0.6625299752362883,D,933,Incorrect
2,relearn,3,864,A,21.309913027938748,66.5430919090225,1.0654956513969374,1.0452564434426774,A,677,Correct
2,relearn,3,865,B,26.032947546603133,65.97318405779629,1.3016473773301567,1.0363043518495003,A,625,Incorrect
2,relearn,3,866,D,64.26211117499707,31.31612831901767,3.2131055587498536,0.4919125933295059,B,1084,Incorrect
2,relearn,3,867,C,79.5859505909699,68.88025274876773,3.979297529548495,1.0819684800646843,C,816,Correct
2,relearn,3,868,D,50.21603096239402,50.25771976950507,2.510801548119701,0.7894464160702581,D,806,Correct
2,relearn,3,869,A,12.07739696189009,30.935254180548444,0.6038698480945045,0.48592983635271964,A,728,Correct
2,relearn,3,870,B,41.70229831578658,88.53508832482358,2.0851149157893287,1.390705915330946,B,934,Correct
2,relearn,3,871,B,30.639819413411928,78.34131959476932,1.5319909706705965,1.2305825705572868,B,901,Correct
2,relearn,3,872,C,78.58159176928602,26.081660747040065,3.929079588464301,0.40968976898161175,D,1181,Incorrect
2,relearn,3,873,A,16.767474658166563,40.48467113662797,0.8383737329083282,0.6359317271291459,A,728,Correct
2,relearn,3,874,C,70.9063755296205,71.68203961698134,3.5453187764810252,1.1259788452752055,B,1011,Incorrect
2,relearn,3,875,B,50.25455367097131,82.30161771697337,2.5127276835485657,1.2927907879909954,C,773,Incorrect
2,relearn,3,876,D,52.410096752523145,32.19515909521199,2.6205048376261573,0.505720376473363,D,941,Correct
2,relearn,3,877,D,61.719836547266546,7.301243487435006,3.0859918273633276,0.11468766451098067,D,632,Correct
2,relearn,3,878,B,56.51453451790286,60.067237037138334,2.825726725895143,0.9435339529865525,C,1342,Incorrect
2,relearn,3,879,D,46.08421565442302,31.81623331328134,2.304210782721151,0.4997682242095175,D,707,Correct
2,relearn,3,880,D,53.21160433536701,29.51209314692091,2.6605802167683503,0.4635748751121221,D,808,Correct
2,relearn,3,881,A,25.874316005329497,31.545246194889614,1.2937158002664748,0.4955115685077329,A,1091,Correct
2,relearn,3,882,D,43.28434776339582,38.850438117484494,2.1642173881697913,0.6102612548931708,D,844,Correct
2,relearn,3,883,C,65.59946514487379,64.46806990324696,3.279973257243689,1.0126620739957692,C,895,Correct
2,relearn,3,884,D,48.68901800031742,9.99198933424904,2.4344509000158707,0.15695380143612175,D,1262,Correct
2,relearn,3,885,C,81.45311709949465,25.216373125894176,4.072655854974732,0.39609786281244114,D,701,Incorrect
2,relearn,3,886,D,73.3673776214452,20.090029420904127,3.66836888107226,0.3155734441955761,D,735,Correct
2,relearn,3,887,A,33.64749889591734,52.66757161636093,1.682374944795867,0.8273002803618691,B,1135,Incorrect
2,relearn,3,888,B,33.621215653657956,68.99390699138551,1.6810607826828976,1.0837537567329711,C,883,Incorrect
2,relearn,3,889,C,63.280657657696665,61.41384854940582,3.1640328828848334,0.9646864771574476,C,711,Correct
2,relearn,3,890,A,6.627116886349832,31.3113082812323,0.3313558443174916,0.4918368803530232,A,694,Correct
2,relearn,3,891,C,87.63458024962573,57.94036165585149,4.381729012481286,0.910125072621794,C,724,Correct
2,relearn,3,892,D,57.770266321847245,1.5969135327212776,2.8885133160923626,0.025084259114076444,B,1157,Incorrect
2,relearn,3,893,C,58.84807928105034,47.557545365457074,2.942403964052517,0.7470321757144163,C,870,Correct
2,relearn,3,894,B,46.084621851226984,81.72926118905491,2.3042310925613494,1.2838002326742814,B,920,Correct
2,relearn,3,895,C,57.84976739854497,58.268000473956455,2.892488369927248,0.9152716111417409,C,651,Correct
2,relearn,3,896,B,47.29446455008674,52.225950890149086,2.364723227504337,0.8203633182161685,B,305,Correct
2,relearn,3,897,B,69.20477673273818,73.82200151995906,3.4602388366369095,1.1595932882419897,D,115,Incorrect
2,relearn,3,898,B,43.87111803455044,97.72037268305488,2.1935559017275224,1.5349880246357095,B,334,Correct
