experiment,condition,subject,trial,cat,x,y,xt,yt,resp,rt,fb
2,relearn,13,0,C,84.02966497638235,27.991197949804825,4.201483248819118,0.4396847092214226,A,9421,Incorrect
2,relearn,13,1,A,39.380494570148315,31.2035635662693,1.9690247285074156,0.49014443032806876,D,3262,Incorrect
2,relearn,13,2,D,49.60196489083924,32.89086416983141,2.480098244541962,0.5166484862308106,B,1647,Incorrect
2,relearn,13,3,D,56.840601513989945,38.822346818065135,2.842030075699497,0.6098199977937425,C,2077,Incorrect
2,relearn,13,4,A,32.86309645121996,69.12697175288572,1.6431548225609982,1.0858439331188747,C,1757,Incorrect
2,relearn,13,5,A,8.47031645498502,29.281907054652077,0.4235158227492511,0.45995912042997056,D,1780,Incorrect
2,relearn,13,6,C,55.85221211292003,37.65978835414584,2.7926106056460016,0.591558572145655,C,5288,Correct
2,relearn,13,7,B,69.66553572901275,65.48808481154396,3.483276786450637,1.028684430708059,B,1804,Correct
2,relearn,13,8,B,56.58402092682703,65.01337379342456,2.8292010463413515,1.021227687472549,C,1000,Incorrect
2,relearn,13,9,B,45.16199496777406,58.93495170059249,2.258099748388703,0.9257480565112531,D,1195,Incorrect
2,relearn,13,10,B,62.71226014593557,90.18949331108593,3.135613007296779,1.4166932480854668,B,1416,Correct
2,relearn,13,11,A,19.755948835414852,50.01278837363827,0.9877974417707427,0.785599042700815,A,629,Correct
2,relearn,13,12,B,50.89039951735367,87.40151341391996,2.5445199758676837,1.3728997622690036,C,1316,Incorrect
2,relearn,13,13,B,63.082825740336474,57.87056381312486,3.1541412870168237,0.9090286906720619,C,1195,Incorrect
2,relearn,13,14,C,70.41090455778671,38.810275182607825,3.520545227889335,0.609630376987395,B,991,Incorrect
2,relearn,13,15,C,76.09087766498254,55.265961099298515,3.804543883249127,0.8681156869156775,D,1101,Incorrect
2,relearn,13,16,B,59.9060351880393,77.41525542448358,2.995301759401965,1.216035988586675,C,1429,Incorrect
2,relearn,13,17,C,96.54610864583486,48.15959959690415,4.827305432291743,0.7564892214673002,D,2456,Incorrect
2,relearn,13,18,C,80.7869752840128,44.614166185347,4.03934876420064,0.7007976836696016,C,675,Correct
2,relearn,13,19,B,70.92245774032489,58.916794814710585,3.5461228870162445,0.9254628488147599,B,902,Correct
2,relearn,13,20,A,31.753413588368513,64.6954925599658,1.5876706794184257,1.0162344207338083,D,1181,Incorrect
2,relearn,13,21,A,33.23432853193508,47.45528937194342,1.661716426596754,0.7454259423243761,A,965,Correct
2,relearn,13,22,C,84.65694726857181,59.66342482160887,4.232847363428591,0.9371908855378667,D,2752,Incorrect
2,relearn,13,23,B,71.44303598758349,61.48339840968372,3.5721517993791743,0.9657789638079837,C,757,Incorrect
2,relearn,13,24,B,37.52494027874347,60.11863807710845,1.8762470139371736,0.9443413586343377,A,1205,Incorrect
2,relearn,13,25,B,52.92209889703482,97.25583036295545,2.646104944851741,1.52769101093518,B,4550,Correct
2,relearn,13,26,A,16.11305298363824,65.39685165236547,0.805652649181912,1.0272513435948645,A,965,Correct
2,relearn,13,27,D,51.16055827560266,0.7492001375981836,2.558027913780133,0.011768408241734578,D,1359,Correct
2,relearn,13,28,A,6.021989114416204,47.29466859632845,0.3010994557208102,0.7429029170809468,A,1027,Correct
2,relearn,13,29,C,85.50604778846947,25.82323478461388,4.275302389423474,0.4056304234563369,C,1790,Correct
2,relearn,13,30,C,71.43787749720082,60.53431262379089,3.5718938748600406,0.9508707591450467,C,1271,Correct
2,relearn,13,31,A,7.492652098734698,66.68235880086817,0.3746326049367349,1.0474440426642306,A,516,Correct
2,relearn,13,32,C,55.719593397077624,53.514246872960584,2.785979669853881,0.8405998241924176,B,3167,Incorrect
2,relearn,13,33,C,59.206910148307024,62.66085362307801,2.960345507415351,0.9842743870496362,C,1014,Correct
2,relearn,13,34,C,88.52783661074339,53.94866535361277,4.4263918305371694,0.8474236537294203,D,3716,Incorrect
2,relearn,13,35,B,57.36528026425057,71.97552950267907,2.8682640132125288,1.1305889736192598,C,1487,Incorrect
2,relearn,13,36,A,12.765720169746169,69.43948318643649,0.6382860084873084,1.090752851237904,A,493,Correct
2,relearn,13,37,C,66.24012056747287,43.097571683548004,3.3120060283736437,0.6769750729429695,C,2215,Correct
2,relearn,13,38,B,36.29876473558845,58.73536931273836,1.8149382367794227,0.9226130236939108,B,1165,Correct
2,relearn,13,39,C,53.53576647686862,46.415087403534336,2.6767883238434313,0.7290864880133582,B,2029,Incorrect
2,relearn,13,40,A,39.7285515008908,59.71512956026303,1.9864275750445402,0.9380030616734254,C,815,Incorrect
2,relearn,13,41,B,27.189541508273685,75.79504135205278,1.3594770754136842,1.1905857254507177,A,1023,Incorrect
2,relearn,13,42,C,60.93910680267933,34.03027591202184,3.046955340133967,0.5345463240242075,C,958,Correct
2,relearn,13,43,D,53.403462166273734,12.349581982403251,2.6701731083136866,0.1939867801541146,C,3557,Incorrect
2,relearn,13,44,B,36.640215687445355,77.82458393916053,1.832010784372268,1.2224657058597446,D,2877,Incorrect
2,relearn,13,45,D,52.41229789467852,35.75651125969334,2.6206148947339263,0.5616619654572665,C,1086,Incorrect
2,relearn,13,46,A,25.125375756521912,30.902905992393446,1.2562687878260956,0.4854217122013962,B,1012,Incorrect
2,relearn,13,47,A,14.374860461596045,51.79552481324153,0.7187430230798023,0.8136022012105372,A,638,Correct
2,relearn,13,48,B,50.414608940095334,69.24935322149672,2.5207304470047665,1.087766296732494,C,3927,Incorrect
2,relearn,13,49,D,70.4210581227289,31.638016706485118,3.5210529061364446,0.49696880429622386,C,484,Incorrect
2,relearn,13,50,D,47.77934780131812,7.520145225530985,2.388967390065906,0.11812616497228252,B,1629,Incorrect
2,relearn,13,51,A,23.539030564240836,25.29588226131324,1.1769515282120417,0.39734678939107015,A,628,Correct
2,relearn,13,52,B,58.90905491053665,61.12108877473892,2.9454527455268327,0.9600878173706469,B,3757,Correct
2,relearn,13,53,A,20.986031684417753,50.32407039556581,1.0493015842208877,0.7904886492672257,A,2231,Correct
2,relearn,13,54,A,20.359661651465373,64.92239664763247,1.0179830825732687,1.0197986218082238,A,493,Correct
2,relearn,13,55,B,61.78359695498724,65.40923579748117,3.089179847749362,1.0274458732914469,C,1622,Incorrect
2,relearn,13,56,C,66.84042250986502,37.66689034897415,3.342021125493251,0.5916701300195473,C,901,Correct
2,relearn,13,57,C,69.84568370668374,71.00806068671196,3.4922841853341873,1.1153920089951623,D,1078,Incorrect
2,relearn,13,58,B,34.94658051941532,93.56205960477389,1.747329025970766,1.46966939554544,D,1190,Incorrect
2,relearn,13,59,D,48.69718994456196,22.94656065373442,2.434859497228098,0.36044373187462325,B,1221,Incorrect
2,relearn,13,60,C,74.51087491507225,24.558296538340286,3.7255437457536122,0.38576081994764744,C,1637,Correct
2,relearn,13,61,B,34.32567620291686,66.53123479217628,1.716283810145843,1.0450701922867933,B,974,Correct
2,relearn,13,62,B,32.908440699259216,55.9908008096396,1.645422034962961,0.879501442460866,B,6222,Correct
2,relearn,13,63,B,35.174452403865885,74.24133692350745,1.7587226201932942,1.1661801933578781,B,997,Correct
2,relearn,13,64,C,101.24681171794693,53.05021782236091,5.0623405858973465,0.8333108729103368,C,1214,Correct
2,relearn,13,65,B,26.05796581528116,73.43321881359815,1.302898290764058,1.1534863037712586,A,1519,Incorrect
2,relearn,13,66,B,69.39487789928289,59.59344305679876,3.469743894964145,0.9360916145468032,D,1052,Incorrect
2,relearn,13,67,C,65.0846065253209,70.48386932520599,3.254230326266045,1.1071580303432504,C,1518,Correct
2,relearn,13,68,A,27.982278768552213,72.60325321066206,1.3991139384276108,1.1404492345666775,A,887,Correct
2,relearn,13,69,A,16.50216155503812,33.66661341660678,0.8251080777519061,0.5288339269042971,A,678,Correct
2,relearn,13,70,B,73.34359391822623,81.3765580240096,3.6671796959113117,1.2782599843132605,B,1325,Correct
2,relearn,13,71,D,45.8042298939867,35.04810184493586,2.290211494699335,0.5505342963915869,C,1093,Incorrect
2,relearn,13,72,C,93.96900616333137,46.774851447278024,4.698450308166568,0.7347376483976127,C,1479,Correct
2,relearn,13,73,C,53.51461779170549,49.48548487168481,2.675730889585275,0.7773161786610692,C,687,Correct
2,relearn,13,74,A,32.887948282508304,52.90616957833854,1.6443974141254154,0.8310481683844209,A,749,Correct
2,relearn,13,75,A,32.036608545234714,67.21948202410918,1.6018304272617356,1.0558811545252629,A,622,Correct
2,relearn,13,76,C,80.49210288414156,32.042641729003535,4.024605144207078,0.5033246392872363,C,791,Correct
2,relearn,13,77,D,40.16291443983744,6.152028060131091,2.008145721991872,0.09663583079193051,D,2701,Correct
2,relearn,13,78,B,50.84912588967669,97.29200140745557,2.5424562944838347,1.5282591843735511,B,1491,Correct
2,relearn,13,79,D,48.338621823984816,18.767138535946398,2.416931091199241,0.2947935227671556,C,1014,Incorrect
2,relearn,13,80,D,50.74176631538601,33.07114565187071,2.5370883157693003,0.5194803411285752,B,702,Incorrect
2,relearn,13,81,D,39.06152328422605,16.373447648971634,1.9530761642113024,0.2571935142397318,D,2348,Correct
2,relearn,13,82,C,84.38556533200679,36.00622881357897,4.219278266600339,0.565584519621064,C,1822,Correct
2,relearn,13,83,C,63.316744910228664,50.60469844655393,3.1658372455114328,0.7948967443841032,C,580,Correct
2,relearn,13,84,D,70.73416827914053,9.870422074258727,3.536708413957027,0.15504422738160872,D,759,Correct
2,relearn,13,85,A,31.84833060075979,58.22477824807942,1.5924165300379896,0.9145926780053053,A,1147,Correct
2,relearn,13,86,C,84.78583518039294,73.57931021867905,4.239291759019647,1.1557811021960325,C,565,Correct
2,relearn,13,87,A,46.964140353584014,58.06559182683232,2.3482070176792007,0.9120921835475997,C,1382,Incorrect
2,relearn,13,88,B,62.165680505860095,72.18236789521112,3.108284025293005,1.1338379834915548,B,1216,Correct
2,relearn,13,89,D,55.381258757583794,30.529711871823608,2.76906293787919,0.47955959266367065,C,4962,Incorrect
2,relearn,13,90,B,49.00515097106014,82.03119525275805,2.450257548553007,1.288543001856273,D,1152,Incorrect
2,relearn,13,91,C,78.25088610018355,23.460158697739494,3.9125443050091775,0.36851131108434537,C,1211,Correct
2,relearn,13,92,B,48.22031705402008,76.94037746400446,2.411015852701004,1.2085766230267105,A,2005,Incorrect
2,relearn,13,93,B,69.25516714530058,63.913071250821055,3.4627583572650287,1.003944175549702,C,837,Incorrect
2,relearn,13,94,B,51.091353452402885,78.10508571134031,2.554567672620144,1.226871817393739,C,3367,Incorrect
2,relearn,13,95,A,9.729445800135254,29.48500642024839,0.4864722900067627,0.46314939780450115,A,660,Correct
2,relearn,13,96,A,18.62232970310631,26.891621088163518,0.9311164851553155,0.4224125962684744,A,608,Correct
2,relearn,13,97,A,20.563030206212144,74.59771001357667,1.0281515103106071,1.1717780887663711,A,703,Correct
2,relearn,13,98,A,31.549020143143075,40.27541509186135,1.577451007157154,0.6326447408643554,A,398,Correct
2,relearn,13,99,B,70.69546325364692,91.47452998827404,3.534773162682346,1.436878557008705,B,2506,Correct
2,relearn,13,100,D,40.31134546017248,47.44827056312944,2.015567273008624,0.7453156911333413,A,1847,Incorrect
2,relearn,13,101,D,29.306344494979907,11.796836811823281,1.4653172247489954,0.1853042793181083,D,2078,Correct
2,relearn,13,102,D,44.9758524644512,36.86653013448627,2.24879262322256,0.5790981011692439,A,5254,Incorrect
2,relearn,13,103,B,47.83166640102255,49.00674914999314,2.3915833200511276,0.7697962155296815,C,1524,Incorrect
2,relearn,13,104,C,87.61106474203112,42.56875142622733,4.380553237101555,0.6686683837656291,C,3093,Correct
2,relearn,13,105,A,30.408933258185833,69.35669528440998,1.5204466629092916,1.0894524219138413,A,496,Correct
2,relearn,13,106,B,67.92771848239616,60.21726106957588,3.3963859241198078,0.9458905249773912,C,918,Incorrect
2,relearn,13,107,C,58.055949616358404,34.51288424811465,2.90279748081792,0.5421271180403594,C,1490,Correct
2,relearn,13,108,A,12.411304649627182,38.00965855774067,0.6205652324813591,0.5970543204522726,A,566,Correct
2,relearn,13,109,A,15.625432156295123,32.56105530884558,0.7812716078147561,0.511467860757001,A,583,Correct
2,relearn,13,110,C,59.66991021387708,42.213535368737176,2.9834955106938543,0.6630886629823881,C,1213,Correct
2,relearn,13,111,C,79.91809091910098,64.3194209306978,3.9959045459550486,1.010327101395149,C,790,Correct
2,relearn,13,112,A,9.109141186917729,58.64683584854773,0.4554570593458864,0.9212223432904204,A,758,Correct
2,relearn,13,113,B,56.96876528854547,59.63318249394712,2.848438264427273,0.9367158401658185,C,1463,Incorrect
2,relearn,13,114,D,66.570309854627,30.43431931714889,3.32851549273135,0.47806116991880443,C,1138,Incorrect
2,relearn,13,115,A,9.97343246657097,55.96454229227023,0.4986716233285485,0.8790889746345572,A,526,Correct
2,relearn,13,116,C,65.73667850367627,63.60852264369527,3.2868339251838137,0.9991603372156652,C,1836,Correct
2,relearn,13,117,D,63.99983770985432,41.2023647879675,3.199991885492716,0.6472052326420273,C,2325,Incorrect
2,relearn,13,118,C,58.71602485171397,36.63343021617077,2.9358012425856987,0.5754365762145821,B,1069,Incorrect
2,relearn,13,119,C,57.478245924801456,55.00433136589475,2.8739122962400727,0.8640060166735679,C,735,Correct
2,relearn,13,120,B,55.92666742049004,54.810034612773876,2.796333371024502,0.8609540104124634,C,565,Incorrect
2,relearn,13,121,B,56.85421428820387,56.70130417971827,2.8427107144101935,0.8906620032998156,C,1215,Incorrect
2,relearn,13,122,D,45.90576072610049,46.99890158705384,2.2952880363050245,0.73825701976339,D,935,Correct
2,relearn,13,123,A,17.486198950377855,29.254681860380497,0.8743099475188927,0.45953146807838974,A,981,Correct
2,relearn,13,124,C,75.681815731264,50.31866028277621,3.7840907865632,0.7904036674142513,C,1036,Correct
2,relearn,13,125,D,26.54941507579049,37.285127353348585,1.3274707537895245,0.5856734109071988,A,1031,Incorrect
2,relearn,13,126,B,29.397698477130945,66.84856694691724,1.4698849238565472,1.0500548341172036,A,948,Incorrect
2,relearn,13,127,A,39.77303313124338,72.35217634625128,1.988651656562169,1.1365053284030813,C,764,Incorrect
2,relearn,13,128,A,9.903712165629639,43.298542653914645,0.49518560828148195,0.6801319175634127,A,647,Correct
2,relearn,13,129,D,39.3159041425853,0.3992337447331167,1.9657952071292653,0.006271148997593511,D,1933,Correct
2,relearn,13,130,B,48.15997893367762,53.05652068852095,2.407998946683881,0.8334098781004614,C,2251,Incorrect
2,relearn,13,131,A,20.524447652626755,38.270849481152425,1.0262223826313377,0.601157097883146,A,542,Correct
2,relearn,13,132,B,47.91332097729437,73.28599790288007,2.3956660488647183,1.151173763113425,B,2045,Correct
2,relearn,13,133,D,36.09293546398404,16.2031620255232,1.8046467731992022,0.254518673921544,D,2190,Correct
2,relearn,13,134,C,60.542181738853174,27.623922861337604,3.0271090869426587,0.4339155656225468,C,1000,Correct
2,relearn,13,135,A,10.249603534892671,71.04331660551287,0.5124801767446335,1.115945807672665,A,436,Correct
2,relearn,13,136,A,31.077803967536752,24.82167556192776,1.5538901983768374,0.38989796797570775,D,1942,Incorrect
2,relearn,13,137,C,70.53409200503702,53.50323787274093,3.526704600251851,0.8404268952213505,C,1272,Correct
2,relearn,13,138,A,18.225982284147783,34.11696089121299,0.9112991142073892,0.5359079684932251,A,900,Correct
2,relearn,13,139,A,28.24023284989752,75.3520595653576,1.4120116424948759,1.1836273838169398,B,2752,Incorrect
2,relearn,13,140,B,39.52246306159915,97.44581929938622,1.9761231530799575,1.5306753501699513,B,1221,Correct
2,relearn,13,141,B,30.545690713477008,91.0952521721002,1.5272845356738503,1.4309208750038982,B,955,Correct
2,relearn,13,142,C,89.85869524825814,49.41954343706574,4.492934762412907,0.7762803730282369,C,1503,Correct
2,relearn,13,143,B,42.98314285544117,89.0808786799907,2.149157142772059,1.399279170181912,B,1119,Correct
2,relearn,13,144,D,28.456471130055746,22.85187356589949,1.4228235565027874,0.35895639057696316,D,669,Correct
2,relearn,13,145,C,50.89732987407157,55.9324973497218,2.5448664937035788,0.8785856138540828,C,1518,Correct
2,relearn,13,146,A,39.44581377236967,59.5890076966488,1.9722906886184832,0.9360219440724876,D,1462,Incorrect
2,relearn,13,147,C,90.47441425825501,52.53105369313365,4.523720712912751,0.8251558618383982,C,950,Correct
2,relearn,13,148,C,80.73804612359955,26.868758486930215,4.036902306179977,0.42205347136809185,D,2149,Incorrect
2,relearn,13,149,C,70.95005210708521,34.315405368023214,3.54750260535426,0.5390251270456875,C,862,Correct
2,relearn,13,150,A,29.556073227371215,64.82494346518392,1.4778036613685606,1.0182678307979773,A,1525,Correct
2,relearn,13,151,A,4.711276840736868,38.2513668793129,0.2355638420368434,0.6008510658890867,A,574,Correct
2,relearn,13,152,B,53.09549274514798,62.26710006181284,2.6547746372573986,0.978089320572659,C,1999,Incorrect
2,relearn,13,153,B,28.949817887151745,80.6833103198736,1.4474908943575873,1.267370474841102,B,1612,Correct
2,relearn,13,154,A,19.642499212061786,47.510399233446925,0.9821249606030892,0.746291606004575,A,965,Correct
2,relearn,13,155,C,70.24826507282346,36.554122227436785,3.512413253641173,0.5741908092406939,C,735,Correct
2,relearn,13,156,A,28.755438833952873,33.7903062217748,1.4377719416976436,0.530776888944386,A,1247,Correct
2,relearn,13,157,C,84.36019768704202,35.52442740474644,4.218009884352101,0.5580164007886766,C,756,Correct
2,relearn,13,158,D,30.118298515635495,22.23632888676585,1.5059149257817748,0.3492874373673505,A,2118,Incorrect
2,relearn,13,159,A,9.410471150613969,61.77016052222329,0.47052355753069847,0.9702834125383948,A,604,Correct
2,relearn,13,160,A,8.14847356780733,53.13449635065836,0.4074236783903665,0.8346347169371099,A,862,Correct
2,relearn,13,161,B,54.0278910101841,78.19591874455742,2.701394550509205,1.2282986193430299,B,1726,Correct
2,relearn,13,162,A,44.27980889535333,59.649127064267724,2.213990444767666,0.9369662968907377,C,3782,Incorrect
2,relearn,13,163,C,61.283210465068194,32.170336434184705,3.0641605232534097,0.5053304630257336,C,748,Correct
2,relearn,13,164,C,77.43736992212493,39.40797185681231,3.871868496106247,0.6190189743911744,C,1015,Correct
2,relearn,13,165,A,13.990210284558376,31.187386346352707,0.6995105142279188,0.48989031915184145,A,533,Correct
2,relearn,13,166,D,71.83181121379556,15.744072250263448,3.5915905606897782,0.24730730859507283,D,3156,Correct
2,relearn,13,167,A,34.16752231728858,60.925903702620026,1.708376115864429,0.9570218574273511,C,1653,Incorrect
2,relearn,13,168,B,32.931215560748775,55.16534037479396,1.6465607780374387,0.8665351402711655,C,781,Incorrect
2,relearn,13,169,C,89.63061775308506,63.196945403321706,4.4815308876542534,0.9926952970419535,C,520,Correct
2,relearn,13,170,B,54.16980525213833,97.86020993861082,2.7084902626069165,1.537184583109473,B,2173,Correct
2,relearn,13,171,A,28.37081627147502,64.93652024057455,1.418540813573751,1.0200204746873696,A,1742,Correct
2,relearn,13,172,D,72.05496542657784,30.49497988597329,3.602748271328892,0.479014023905711,C,1076,Incorrect
2,relearn,13,173,D,68.0458468376348,9.88431491647748,3.4022923418817403,0.1552624556368683,D,1236,Correct
2,relearn,13,174,B,31.982222651961685,86.2956612140021,1.5991111325980842,1.3555290765329129,B,1244,Correct
2,relearn,13,175,C,64.48959805071638,52.42047988288546,3.224479902535819,0.8234189724886224,C,1078,Correct
2,relearn,13,176,B,69.52149856673708,70.57212565330482,3.476074928336854,1.1085443575031908,C,1518,Incorrect
2,relearn,13,177,C,93.51647876861767,34.42139297289636,4.6758239384308835,0.5406899764498927,C,816,Correct
2,relearn,13,178,C,76.22260750340288,68.83957778554392,3.8111303751701437,1.0813295592364394,C,661,Correct
2,relearn,13,179,D,47.593044055979135,27.36699092461984,2.379652202798957,0.4298796881982212,D,1476,Correct
2,relearn,13,180,A,31.808830549859316,71.63181890932385,1.590441527492966,1.1251899802440315,A,1798,Correct
2,relearn,13,181,B,44.996400328704595,85.15202294161783,2.2498200164352298,1.3375648485584806,B,1334,Correct
2,relearn,13,182,D,62.05601779015058,6.565474721367778,3.1028008895075287,0.10313023575989252,D,781,Correct
2,relearn,13,183,B,45.05557449910596,87.33477382023648,2.2527787249552977,1.3718514191829054,B,2063,Correct
2,relearn,13,184,C,69.15286865840343,30.263401634282676,3.457643432920172,0.475376401234499,C,1005,Correct
2,relearn,13,185,C,92.07420061809097,52.01949132781437,4.603710030904549,0.8171202589946979,C,701,Correct
2,relearn,13,186,C,60.85875356529081,48.35244508889067,3.0429376782645408,0.7595184313718139,C,3030,Correct
2,relearn,13,187,A,0.1761407034974951,52.47359248392394,0.008807035174874755,0.8242532632748001,A,1404,Correct
2,relearn,13,188,B,58.154357411368935,64.55138522725346,2.907717870568447,1.013970788044921,D,2892,Incorrect
2,relearn,13,189,B,42.44276135403133,69.32065913839145,2.1221380677015667,1.0888863674558638,C,785,Incorrect
2,relearn,13,190,B,54.327636406765144,49.555865542000696,2.7163818203382575,0.7784217156451648,C,835,Incorrect
2,relearn,13,191,C,75.74209053260937,47.32539721236072,3.7871045266304684,0.7433856010528566,C,741,Correct
2,relearn,13,192,B,37.38935711367222,60.58866844912279,1.8694678556836108,0.9517245784527594,B,5156,Correct
2,relearn,13,193,C,68.4035387552986,42.27394933528335,3.42017693776493,0.6640376433497663,C,735,Correct
2,relearn,13,194,D,34.25757877779052,6.7059520034382984,1.712878938889526,0.10533684774663757,D,1349,Correct
2,relearn,13,195,D,55.92630514617534,10.656169071344019,2.7963152573087666,0.1673867123497257,D,862,Correct
2,relearn,13,196,B,38.68570589624125,56.42847884562267,1.9342852948120626,0.8863764729732762,B,1389,Correct
2,relearn,13,197,A,16.194494862233718,25.02677862620942,0.8097247431116859,0.3931197193755878,A,727,Correct
2,relearn,13,198,C,77.50150312856279,37.322237970306965,3.875075156428139,0.586256343115232,C,868,Correct
2,relearn,13,199,A,36.08633003666265,43.22182403049438,1.8043165018331324,0.6789268242447596,D,2765,Incorrect
2,relearn,13,200,A,38.06363213317506,45.653010817910186,1.9031816066587532,0.71711581699901,A,3814,Correct
2,relearn,13,201,A,29.748246563351397,59.01346375227321,1.48741232816757,0.9269813209351453,A,635,Correct
2,relearn,13,202,C,81.94477968510175,50.88029592075754,4.097238984255088,0.7992258193856331,C,672,Correct
2,relearn,13,203,C,61.26185130200643,66.18776322339905,3.0630925651003214,1.0396749535008556,B,2651,Incorrect
2,relearn,13,204,B,39.5345671544764,93.67616517150617,1.97672835772382,1.471461761596339,B,1103,Correct
2,relearn,13,205,B,42.169533059091975,63.473417373689784,2.108476652954599,0.9970381085971127,A,3261,Incorrect
2,relearn,13,206,A,21.403055757950725,44.757101711826756,1.0701527878975363,0.7030429096692304,A,638,Correct
2,relearn,13,207,C,61.265498059521974,70.76459412098288,3.0632749029760986,1.1115676451237164,B,3086,Incorrect
2,relearn,13,208,B,32.938818516851754,84.16845473300305,1.6469409258425878,1.3221149952660372,B,1333,Correct
2,relearn,13,209,C,89.05167615002576,40.89030684189399,4.452583807501288,0.642303437887633,C,685,Correct
2,relearn,13,210,D,48.78833361396228,34.81081641242637,2.439416680698114,0.5468070255337084,D,1884,Correct
2,relearn,13,211,A,19.332348194328052,75.0843482950286,0.9666174097164025,1.179422185016196,A,878,Correct
2,relearn,13,212,A,37.383866556139935,51.804402763801775,1.8691933278069968,0.8137416557318321,B,10494,Incorrect
2,relearn,13,213,B,63.6394550859544,76.99733230548318,3.18197275429772,1.20947126758459,C,1195,Incorrect
2,relearn,13,214,D,53.04748933676885,28.529470361873354,2.6523744668384426,0.44813987249834536,D,1783,Correct
2,relearn,13,215,C,72.93158983999497,49.429324575364774,3.6465794919997485,0.7764340147893571,C,879,Correct
2,relearn,13,216,A,11.033790032985383,48.053384398075686,0.5516895016492691,0.7548207970256049,A,597,Correct
2,relearn,13,217,B,37.45567579632679,59.12724018176176,1.8727837898163393,0.9287685169103099,B,2348,Correct
2,relearn,13,218,D,61.35252715914192,14.479173880407206,3.067626357957096,0.2274383314636825,D,1279,Correct
2,relearn,13,219,C,96.94183183536273,43.72587090014574,4.8470915917681365,0.6868443739585679,C,843,Correct
2,relearn,13,220,A,17.470296341475354,66.42019355948386,0.8735148170737677,1.0433259606824328,A,606,Correct
2,relearn,13,221,C,92.96923887630336,61.5260386764987,4.648461943815168,0.966448755552849,C,783,Correct
2,relearn,13,222,B,46.12515327611252,66.7893362121493,2.306257663805626,1.0491244399111348,B,2980,Correct
2,relearn,13,223,A,22.6811521378505,42.38451470521824,1.134057606892525,0.6657744001194108,A,760,Correct
2,relearn,13,224,D,46.44807130352076,38.63775489013025,2.322403565176038,0.6069204345701814,D,1597,Correct
2,relearn,13,225,B,66.60955405159568,84.34745365841687,3.3304777025797843,1.3249267038114396,B,957,Correct
2,relearn,13,226,B,65.90380549410301,69.1971999187333,3.295190274705151,1.0869470745683838,C,1302,Incorrect
2,relearn,13,227,B,43.39309707233189,49.72666747056266,2.1696548536165947,0.7811046660651109,D,1598,Incorrect
2,relearn,13,228,B,56.75380827095856,84.91804584337739,2.8376904135479277,1.3338895448937782,B,799,Correct
2,relearn,13,229,A,11.90123158790359,29.808879645093505,0.5950615793951795,0.4682367865238404,A,684,Correct
2,relearn,13,230,A,38.53004150149535,42.96888507894014,1.9265020750747675,0.674953668484712,D,1879,Incorrect
2,relearn,13,231,A,23.69501026989885,28.369597590874665,1.1847505134949428,0.4456285968839527,A,619,Correct
2,relearn,13,232,A,44.02371471978814,34.10399156550782,2.201185735989407,0.5357042468014382,C,3807,Incorrect
2,relearn,13,233,C,57.23608220997684,38.9992239549365,2.8618041104988423,0.612598377362658,B,3652,Incorrect
2,relearn,13,234,D,26.53736262657096,16.241795110731374,1.3268681313285482,0.25512552100492153,A,2645,Incorrect
2,relearn,13,235,A,28.76539877678785,36.12800033596541,1.4382699388393925,0.5674973022217925,D,1198,Incorrect
2,relearn,13,236,C,51.65971355653162,54.61949309471197,2.582985677826581,0.8579609912457278,B,3549,Incorrect
2,relearn,13,237,C,89.49377945664794,61.921160978950525,4.474688972832397,0.9726553221661097,C,792,Correct
2,relearn,13,238,C,68.21228898657556,52.35517044943747,3.410614449328778,0.8223930943069712,C,827,Correct
2,relearn,13,239,A,24.75791352298222,36.3227130151159,1.2378956761491111,0.5705558418336923,A,641,Correct
2,relearn,13,240,A,35.36252922379944,36.63300180978263,1.768126461189972,0.5754298468227735,A,1013,Correct
2,relearn,13,241,D,68.54776925183276,13.866470111690068,3.427388462591638,0.21781400317053976,D,1324,Correct
2,relearn,13,242,D,50.14918034485655,2.7735297116000233,2.5074590172428275,0.04356650283237826,D,879,Correct
2,relearn,13,243,A,7.270550041506869,65.36852863829,0.3635275020753434,1.0268064467301292,A,900,Correct
2,relearn,13,244,B,32.940281150152686,90.81998170826108,1.6470140575076342,1.4265969366691622,B,1135,Correct
2,relearn,13,245,B,29.428348732669033,76.93703167820588,1.4714174366334516,1.208524067546284,A,949,Incorrect
2,relearn,13,246,B,32.770739509574,54.94706613359732,1.6385369754787,0.8631064965081093,B,2710,Correct
2,relearn,13,247,D,57.22830473387281,14.296935759963127,2.8614152366936407,0.22457574176172684,D,901,Correct
2,relearn,13,248,A,24.058352279644758,60.5196274258874,1.202917613982238,0.9506400845957962,B,3008,Incorrect
2,relearn,13,249,A,13.426240585537121,73.9474833700868,0.6713120292768561,1.1615643525345904,A,917,Correct
2,relearn,13,250,B,56.66238256738997,96.95944637586854,2.833119128369498,1.5230354221528106,B,1285,Correct
2,relearn,13,251,B,46.501075468829065,49.10685839986974,2.325053773441453,0.7713687279495249,B,4053,Correct
2,relearn,13,252,A,29.79864807220426,48.05136916374933,1.4899324036102128,0.7547891417988299,A,1022,Correct
2,relearn,13,253,D,45.37603941126226,49.08586887856481,2.2688019705631133,0.7710390253198552,C,1455,Incorrect
2,relearn,13,254,B,40.766494606998045,86.46788946888417,2.038324730349902,1.3582344316343036,B,940,Correct
2,relearn,13,255,C,83.64173489495626,53.30416883875029,4.182086744747813,0.8372999261476395,C,724,Correct
2,relearn,13,256,B,61.863394704014524,55.48584044138968,3.093169735200726,0.8715695435446265,C,661,Incorrect
2,relearn,13,257,A,29.095167378903547,62.743351449691275,1.4547583689451773,0.985570259879763,A,1303,Correct
2,relearn,13,258,C,93.78991477512676,45.31983564520552,4.689495738756338,0.7118823136243726,C,879,Correct
2,relearn,13,259,A,1.7047895438206808,56.901152209909704,0.08523947719103404,0.8938012088172346,A,898,Correct
2,relearn,13,260,B,49.96186189295044,86.93937848598529,2.4980930946475217,1.3656405637961693,B,1221,Correct
2,relearn,13,261,D,65.92309770633355,45.75969337707208,3.2961548853166778,0.7187915827196557,B,2718,Incorrect
2,relearn,13,262,B,64.85056419402605,65.86156290279689,3.2425282097013026,1.0345510108468439,C,1880,Incorrect
2,relearn,13,263,A,32.36485390857034,38.61061075645863,1.6182426954285172,0.6064940555155273,A,581,Correct
2,relearn,13,264,A,11.668509921951193,45.100540478569364,0.5834254960975597,0.708437633202013,A,564,Correct
2,relearn,13,265,C,73.78390139889478,48.62529358771767,3.689195069944739,0.7638043255691035,C,1118,Correct
2,relearn,13,266,C,92.06284388506661,37.70238473019115,4.603142194253331,0.5922276744559226,D,1999,Incorrect
2,relearn,13,267,A,37.86997873104262,64.09624005607832,1.8934989365521313,1.0068213844145173,A,724,Correct
2,relearn,13,268,C,81.7785997819989,69.01203980728036,4.088929989099945,1.0840385863389916,B,1357,Incorrect
2,relearn,13,269,D,55.99099943590237,25.229149052452108,2.7995499717951184,0.39629854659752717,C,1374,Incorrect
2,relearn,13,270,D,36.514078528419994,5.72606604705711,1.8257039264209995,0.08994483513702281,D,966,Correct
2,relearn,13,271,B,34.57202858469066,91.94567832054695,1.728601429234533,1.4442793377058027,B,1168,Correct
2,relearn,13,272,D,59.92567823515297,37.945091522423816,2.996283911757649,0.596040103833195,C,838,Incorrect
2,relearn,13,273,C,86.42841780203248,39.12638021516816,4.321420890101624,0.6145957432276667,C,611,Correct
2,relearn,13,274,B,41.18705243996714,90.29251509024196,2.059352621998357,1.4183115104082484,B,1007,Correct
2,relearn,13,275,A,12.294503431937217,61.099886435352936,0.6147251715968608,0.9597547718023771,A,597,Correct
2,relearn,13,276,D,59.71688081177323,15.947649710414664,2.9858440405886615,0.2505050958613105,D,1206,Correct
2,relearn,13,277,A,37.55317809024987,60.865740157399365,1.8776589045124936,0.9560768106689554,A,2175,Correct
2,relearn,13,278,D,26.832476875739445,34.05861388068017,1.3416238437869723,0.5349914557949809,A,869,Incorrect
2,relearn,13,279,A,33.413149317482926,40.65829862528793,1.6706574658741462,0.6386590613433226,A,1693,Correct
2,relearn,13,280,D,51.013283859131725,9.306889059815237,2.550664192956586,0.14619227149045383,D,2462,Correct
2,relearn,13,281,D,63.956987415026695,16.700183289116985,3.1978493707513347,0.2623258656734648,D,1086,Correct
2,relearn,13,282,A,15.805845351240814,40.94242862741138,0.7902922675620406,0.6431221649800001,A,598,Correct
2,relearn,13,283,A,50.476188819844594,56.90105458812713,2.52380944099223,0.89379967537786,B,2487,Incorrect
2,relearn,13,284,D,54.48050357586633,37.411494444726365,2.7240251787933163,0.5876583805368385,D,1262,Correct
2,relearn,13,285,D,64.33830225170601,42.52133394882652,3.2169151125853004,0.6679235517723583,C,2348,Incorrect
2,relearn,13,286,D,66.76479980095249,17.260278261262883,3.338239990047624,0.2711238169224954,D,1057,Correct
2,relearn,13,287,C,65.06900302485954,51.150460415792665,3.2534501512429768,0.8034695533499487,C,1522,Correct
2,relearn,13,288,D,48.54068365379967,19.432538199368178,2.4270341826899835,0.3052455962386905,D,1895,Correct
2,relearn,13,289,A,31.775081974573148,44.535480984817184,1.5887540987286572,0.699561699429948,A,1252,Correct
2,relearn,13,290,B,46.97814628050307,78.63895005298787,2.3489073140251535,1.2352577388624069,B,1175,Correct
2,relearn,13,291,C,80.66648624930235,53.319097593906776,4.033324312465117,0.8375344264852738,C,872,Correct
2,relearn,13,292,D,50.13641381446321,40.29652002816961,2.5068206907231603,0.6329762564286581,B,2229,Incorrect
2,relearn,13,293,A,8.692148238383442,61.15127981462796,0.43460741191917207,0.9605620571162452,A,884,Correct
2,relearn,13,294,A,8.957880964721504,69.8694109550156,0.4478940482360752,1.097506140834616,A,518,Correct
2,relearn,13,295,D,68.69466820721397,41.090530959481285,3.4347334103606983,0.6454485509720519,C,852,Incorrect
2,relearn,13,296,B,49.123796642409076,87.01370458283508,2.4561898321204536,1.366808075395336,B,855,Correct
2,relearn,13,297,D,54.9287995818807,40.743963698991784,2.7464399790940353,0.640004685174409,D,1020,Correct
2,relearn,13,298,D,61.305084180433155,24.84480940053346,3.0652542090216577,0.39026135346277274,D,1470,Correct
2,relearn,13,299,D,45.73388069762079,0.2638010604135701,2.2866940348810396,0.004143777367022345,B,2535,Incorrect
2,relearn,13,300,A,3.4051709911035246,47.30377074274396,0.17025854955517622,0.743045893262501,A,606,Incorrect
2,relearn,13,301,A,23.554423906317037,55.774978736035926,1.177721195315852,0.8761113172562869,A,3260,Correct
2,relearn,13,302,A,9.590791720932655,61.58353207645193,0.47953958604663277,0.9673518597674637,A,625,Incorrect
2,relearn,13,303,A,40.8341635266573,35.597692023191065,2.041708176332865,0.5591672387240452,C,10267,Incorrect
2,relearn,13,304,B,63.67790479161802,79.33098985608385,3.1838952395809006,1.2461282746693971,B,2751,Correct
2,relearn,13,305,A,40.43312978184889,62.214530806384346,2.0216564890924444,0.9772635646393646,D,5839,Incorrect
2,relearn,13,306,D,37.08686440170068,34.48131133966172,1.8543432200850338,0.5416311719541185,D,1662,Incorrect
2,relearn,13,307,B,43.87327585397575,60.188390589380894,2.1936637926987874,0.9454370285349601,D,2581,Incorrect
2,relearn,13,308,C,62.016309461908996,31.98154252174542,3.10081547309545,0.502364895183925,C,1268,Correct
2,relearn,13,309,A,39.06723487709118,67.47885234539797,1.953361743854559,1.0599553340048633,B,1312,Incorrect
2,relearn,13,310,D,67.21969267820872,21.215607529309526,3.360984633910436,0.33325398377761556,D,1205,Correct
2,relearn,13,311,A,14.976899113214184,67.24817490166967,0.7488449556607093,1.0563318611920347,A,651,Correct
2,relearn,13,312,A,24.696700523360775,76.15974081161555,1.2348350261680388,1.1963144111653707,A,678,Correct
2,relearn,13,313,B,57.23745788936654,90.89744192132015,2.8618728944683265,1.4278136788506215,B,1188,Incorrect
2,relearn,13,314,A,20.13791854588972,67.73236915349497,1.006895927294486,1.0639375667142585,A,918,Correct
2,relearn,13,315,C,80.116446824148,28.495926353915934,4.0058223412074,0.44761296445349036,C,750,Incorrect
2,relearn,13,316,D,57.4926697895523,24.689501895376903,2.874633489477615,0.3878217888765368,D,1397,Incorrect
2,relearn,13,317,A,38.57937441400611,67.07563492057896,1.9289687207003055,1.0536216095068094,B,7039,Incorrect
2,relearn,13,318,A,2.7920245467703246,54.1278155953933,0.13960122733851624,0.8502377391467532,A,588,Incorrect
2,relearn,13,319,D,59.252367551512485,10.810283057708958,2.9626183775756245,0.1698075291866233,D,1455,Incorrect
2,relearn,13,320,C,93.13797183034833,57.901528106261935,4.656898591517416,0.9095150766512772,C,1166,Correct
2,relearn,13,321,B,28.572890706042077,60.495909576940676,1.428644535302104,0.9502675254957462,A,954,Incorrect
2,relearn,13,322,B,40.262599685464295,75.65161464400937,2.0131299842732147,1.1883327839891293,B,2288,Correct
2,relearn,13,323,D,39.62716337642361,11.683726296086409,1.9813581688211803,0.18352754349169473,D,884,Correct
2,relearn,13,324,A,25.70320339186316,66.95392361721647,1.285160169593158,1.0517097728242972,A,837,Correct
2,relearn,13,325,A,22.241971336484248,50.49330435556756,1.1120985668242125,0.7931469700946229,A,560,Correct
2,relearn,13,326,D,37.78024622751492,44.570062447592946,1.889012311375746,0.7001049037769815,D,2678,Incorrect
2,relearn,13,327,C,50.009183213628596,57.93665678629196,2.5004591606814297,0.9100668766668403,C,1100,Incorrect
2,relearn,13,328,B,47.026018383558686,69.91314680458065,2.3513009191779344,1.0981931419530764,B,1696,Incorrect
2,relearn,13,329,C,94.63546176259803,31.886507148554664,4.731773088129901,0.5008720830326887,C,1054,Correct
2,relearn,13,330,C,80.34471588797737,23.831330111254708,4.017235794398869,0.3743416580139551,D,1716,Incorrect
2,relearn,13,331,A,40.68799190308543,29.541525129493905,2.0343995951542717,0.46403719161328166,D,2935,Incorrect
2,relearn,13,332,A,15.595264361384581,33.25316164358526,0.7797632180692291,0.5223394416406067,A,692,Correct
2,relearn,13,333,C,64.6115941223355,69.04100052521804,3.2305797061167754,1.0844935002325702,C,1165,Incorrect
2,relearn,13,334,A,24.119632771725215,61.35890530366919,1.2059816385862607,0.9638234306715947,C,7381,Incorrect
2,relearn,13,335,A,45.45757254921095,47.81044449415152,2.272878627460548,0.7510047059384449,B,3966,Incorrect
2,relearn,13,336,A,3.009323007737276,49.41891854910784,0.15046615038686378,0.7762705573111478,A,852,Incorrect
2,relearn,13,337,C,84.42026723982374,42.718200747353194,4.2210133619911865,0.671015928212294,C,3237,Correct
2,relearn,13,338,C,56.08809511700282,36.222892690001004,2.804404755850141,0.5689878678333928,D,1717,Incorrect
2,relearn,13,339,B,63.255321516326674,87.5539427668708,3.1627660758163336,1.3752941169461126,B,1030,Correct
2,relearn,13,340,A,2.829108319604458,50.723364937734644,0.1414554159802229,0.7967607532687061,A,571,Incorrect
2,relearn,13,341,A,19.776719938853628,55.76407480770654,0.9888359969426814,0.8759400387506127,A,774,Incorrect
2,relearn,13,342,B,71.23412985307264,72.28658452454418,3.5617064926536326,1.1354750144770283,C,2127,Incorrect
2,relearn,13,343,C,81.63684153061202,35.16639652781892,4.0818420765306005,0.5523924649251076,C,979,Incorrect
2,relearn,13,344,D,66.30196149993716,44.313378466854594,3.3150980749968584,0.6960729212360726,C,912,Correct
2,relearn,13,345,D,59.405750130558474,46.34269037909441,2.970287506527924,0.7279492782127469,D,7028,Incorrect
2,relearn,13,346,B,44.870798100698295,100.35174293943952,2.2435399050349147,1.5763214919673731,B,856,Correct
2,relearn,13,347,D,41.91647306763444,39.18631734086278,2.0958236533817223,0.615537233396464,A,3014,Incorrect
2,relearn,13,348,B,59.464285471737774,54.33517600447901,2.9732142735868887,0.8534949488358982,C,2638,Incorrect
2,relearn,13,349,C,91.33394626327907,32.90349812220893,4.566697313163954,0.5168469398906856,C,1007,Incorrect
2,relearn,13,350,A,21.1392716049876,46.72935746242471,1.05696358024938,0.7340230305546243,A,717,Correct
2,relearn,13,351,D,38.77426167901637,25.68877903141285,1.9387130839508186,0.4035183974238906,C,2413,Incorrect
2,relearn,13,352,C,90.66837784312682,70.13777277669219,4.533418892156341,1.101721558472032,C,2751,Correct
2,relearn,13,353,A,23.742850954090716,66.12875407865674,1.1871425477045359,1.0387480400227704,A,780,Incorrect
2,relearn,13,354,C,57.231527865157204,37.598383594040236,2.8615763932578604,0.5905940284294391,C,814,Correct
2,relearn,13,355,B,46.43141246483482,98.21510564963413,2.321570623241741,1.5427592719021799,B,828,Incorrect
2,relearn,13,356,D,51.474764532582554,18.551017338958797,2.5737382266291275,0.29139869894344916,D,4487,Correct
2,relearn,13,357,D,62.003857578414504,48.85294022454582,3.100192878920725,0.7673801905784722,C,1164,Incorrect
2,relearn,13,358,D,64.2070395511302,19.951036578981025,3.2103519775565097,0.3133901497401401,C,8080,Incorrect
2,relearn,13,359,D,60.62529861374145,36.365086678428064,3.0312649306870725,0.5712214457805284,D,1621,Correct
2,relearn,13,360,B,55.50010675304334,94.83776723410713,2.775005337652167,1.4897081641276488,B,886,Correct
2,relearn,13,361,A,11.989314115434128,57.31123893954798,0.5994657057717064,0.9002428361030661,A,630,Correct
2,relearn,13,362,B,38.168697712194415,89.16101816506796,1.9084348856097209,1.4005379982698178,B,1253,Correct
2,relearn,13,363,C,74.79541923230407,36.6117879412144,3.7397709616152035,0.5750966201545327,C,701,Correct
2,relearn,13,364,B,61.97517356806346,86.03570763041655,3.0987586784031733,1.35144573519058,B,1043,Incorrect
2,relearn,13,365,D,50.72568688031392,50.15244626290117,2.536284344015696,0.7877927836954359,A,1464,Incorrect
2,relearn,13,366,D,45.64739886499096,24.86085888534238,2.2823699432495483,0.39051345818062083,C,7396,Correct
2,relearn,13,367,C,85.7525808517539,67.17854176752333,4.287629042587695,1.0552380664786318,B,2237,Correct
2,relearn,13,368,B,41.834421998374125,72.31413273251503,2.0917210999187064,1.1359077407159321,C,1879,Correct
2,relearn,13,369,C,88.7722846208658,53.68811358464621,4.43861423104329,0.8433309161130945,C,1019,Correct
2,relearn,13,370,D,51.16988939113671,45.21804817643286,2.5584944695568352,0.7102834398037541,C,1031,Incorrect
2,relearn,13,371,A,34.09328861180095,74.79045001376984,1.7046644305900474,1.17480564160967,B,1136,Incorrect
2,relearn,13,372,D,46.70122904229195,32.787597122270085,2.3350614521145974,0.5150263712409278,D,1363,Incorrect
2,relearn,13,373,D,56.64964383028477,42.74306872800196,2.8324821915142384,0.6714065535388728,C,1214,Incorrect
2,relearn,13,374,C,89.31518181341123,48.09063245802564,4.465759090670562,0.755405888183101,C,990,Correct
2,relearn,13,375,D,43.411365482709144,11.908673286673704,2.170568274135457,0.1870610025570756,D,964,Incorrect
2,relearn,13,376,D,64.4373211813207,35.313871060428795,3.221866059066035,0.5547089894663015,C,1078,Incorrect
2,relearn,13,377,D,43.91292376390177,2.603187174888827,2.195646188195089,0.04089076852274954,B,766,Incorrect
2,relearn,13,378,B,50.654437748179234,61.21288204062074,2.532721887408962,0.9615297026193635,B,1565,Incorrect
2,relearn,13,379,A,24.4712530962331,54.21275248687863,1.223562654811655,0.8515719247182985,A,798,Incorrect
2,relearn,13,380,A,18.13720570409008,50.54966061789279,0.9068602852045039,0.7940322121931463,A,677,Incorrect
2,relearn,13,381,D,42.265112806957966,19.584400173931876,2.1132556403478984,0.30763103855693524,D,1423,Incorrect
2,relearn,13,382,C,75.45353609527501,32.097139673625605,3.7726768047637504,0.5041806909995384,C,774,Incorrect
2,relearn,13,383,C,68.07066136532774,58.204939626415964,3.4035330682663867,0.9142810536649292,C,550,Correct
2,relearn,13,384,A,19.629550478298757,30.262591632842962,0.9814775239149378,0.4753636777616369,A,595,Incorrect
2,relearn,13,385,C,65.26499935310498,54.57164778865779,3.2632499676552493,0.8572094389356849,C,999,Correct
2,relearn,13,386,D,56.36467173277513,29.202299625204063,2.8182335866387564,0.4587086498523452,D,2070,Incorrect
2,relearn,13,387,A,8.245594524535825,48.74100062203826,0.41227972622679127,0.7656218474140546,A,668,Correct
2,relearn,13,388,B,38.2804115988309,84.84628257112708,1.9140205799415453,1.3327622900492826,B,1103,Incorrect
2,relearn,13,389,A,23.361807406751005,35.96291192089315,1.1680903703375503,0.5649040994618736,C,1309,Incorrect
2,relearn,13,390,A,12.120910907588422,68.10199396663492,0.6060455453794211,1.0697436197019832,A,883,Incorrect
2,relearn,13,391,D,32.10629644123231,19.225671379192804,1.6053148220616154,0.3019961398260183,D,4777,Correct
2,relearn,13,392,C,81.00244920283026,51.074181946133315,4.0501224601415124,0.8022713739504043,C,830,Incorrect
2,relearn,13,393,D,63.123975040189045,12.070109027814002,3.1561987520094523,0.18959682924904153,D,1388,Incorrect
2,relearn,13,394,A,46.10362477499533,43.101999141870294,2.3051812387497663,0.6770446192956664,C,1070,Incorrect
2,relearn,13,395,B,48.991834138096074,50.67170618125673,2.4495917069048034,0.7959492994194832,C,717,Correct
2,relearn,13,396,B,45.41501282323411,93.07119601886782,2.2707506411617056,1.4619589283684538,B,1076,Correct
2,relearn,13,397,D,52.7665207454807,-0.05384053773638442,2.6383260372740347,-0.0008457251890897465,D,944,Correct
2,relearn,13,398,B,68.74481196005509,90.12459336507123,3.437240598002754,1.415673802117376,B,909,Incorrect
2,relearn,13,399,A,48.46719711641603,60.027776198079074,2.4233598558208014,0.9429141035760874,C,1030,Incorrect
2,relearn,13,400,C,61.912843560191334,51.26507242543717,3.095642178009567,0.8052698745875103,C,2781,Incorrect
2,relearn,13,401,B,58.839835590173685,89.75759344120726,2.9419917795086845,1.4099089807939809,B,805,Incorrect
2,relearn,13,402,C,56.35259892873942,61.77473114042355,2.8176299464369707,0.9703552076411963,C,1213,Correct
2,relearn,13,403,C,99.29328255473268,52.593561187682226,4.964664127736635,0.8261377272667388,C,781,Incorrect
2,relearn,13,404,D,64.26478407438859,6.915369025286349,3.213239203719429,0.10862636263351001,D,861,Incorrect
2,relearn,13,405,A,25.17222823611712,27.533613400124604,1.258611411805856,0.43249698792306474,A,1280,Incorrect
2,relearn,13,406,A,39.06553067646748,56.25760175667681,1.9532765338233742,0.8836923419367805,C,908,Incorrect
2,relearn,13,407,A,20.049694291030203,47.426219234965835,1.0024847145515101,0.7449693096805379,A,1503,Incorrect
2,relearn,13,408,D,54.185988800809646,21.715015926285524,2.7092994400404824,0.3410986725330198,C,1183,Incorrect
2,relearn,13,409,B,32.10350128032486,72.27598518849771,1.605175064016243,1.1353085204957456,C,1300,Incorrect
2,relearn,13,410,A,38.876919663268964,43.15645008163295,1.943845983163448,0.6778999326573635,C,1971,Correct
2,relearn,13,411,B,50.85932059081304,63.645018508693795,2.542966029540652,0.9997336129224943,C,872,Incorrect
2,relearn,13,412,C,84.74507782176826,44.04572847704722,4.237253891088414,0.6918686850275114,C,740,Incorrect
2,relearn,13,413,D,48.509428509179436,38.453941952502845,2.4254714254589715,0.6040331076977564,C,1844,Incorrect
2,relearn,13,414,C,60.98270752705794,43.864922436119606,3.049135376352897,0.6890285903779971,D,4389,Incorrect
2,relearn,13,415,A,17.542095482465943,64.5149933973593,0.8771047741232971,1.01339914651769,A,815,Incorrect
2,relearn,13,416,C,72.01137104351548,72.38574553804821,3.6005685521757744,1.1370326320347621,C,747,Correct
2,relearn,13,417,B,37.960752104252364,60.01890319175554,1.8980376052126184,0.942774726718681,D,4705,Correct
2,relearn,13,418,B,52.0159401915718,49.02906222493982,2.6007970095785904,0.7701467084913389,C,2042,Incorrect
2,relearn,13,419,D,31.298616231072327,35.311130557975666,1.5649308115536165,0.554665941754432,D,2088,Incorrect
2,relearn,13,420,C,66.20521789705163,64.98301522013139,3.3102608948525813,1.0207508161183925,C,758,Incorrect
2,relearn,13,421,C,52.57920634899618,43.85445720535391,2.6289603174498093,0.6888642029175391,B,686,Incorrect
2,relearn,13,422,C,61.897913785727425,44.617633267477885,3.0948956892863713,0.7008521444683603,B,765,Incorrect
2,relearn,13,423,B,28.657510317844896,73.38752235048149,1.4328755158922448,1.152768505407147,B,1284,Incorrect
2,relearn,13,424,A,42.39912892807591,40.371542685940376,2.119956446403796,0.6341547095811851,C,663,Incorrect
2,relearn,13,425,C,55.15329782033201,43.754075527188334,2.7576648910166006,0.6872874112041392,C,838,Correct
2,relearn,13,426,D,46.3462967228406,42.93634157642833,2.31731483614203,0.6744424763426462,C,883,Incorrect
2,relearn,13,427,A,10.665114360661692,38.4287804322909,0.5332557180330846,0.6036378714625015,A,638,Correct
2,relearn,13,428,B,62.30191186969811,89.49369140084265,3.1150955934849054,1.4057636172375965,B,1021,Correct
2,relearn,13,429,B,62.195530766665335,87.17781096840017,3.1097765383332665,1.3693858524718283,B,776,Incorrect
2,relearn,13,430,A,5.472567355925552,36.46139588547191,0.2736283677962776,0.5727342672671383,A,604,Correct
2,relearn,13,431,B,58.90977774435011,59.97902782262111,2.9454888872175053,0.9421483658850215,B,2247,Incorrect
2,relearn,13,432,C,63.77459755954479,69.30160018487764,3.1887298779772393,1.0885869901141432,C,1693,Incorrect
2,relearn,13,433,D,67.82295155234247,19.64686464207552,3.391147577617124,0.30861222812808753,B,925,Incorrect
2,relearn,13,434,B,60.88537760044576,68.56105512066902,3.044268880022288,1.0769545354472934,C,5454,Incorrect
2,relearn,13,435,D,68.89416964067287,21.270173212916834,3.4447084820336435,0.3341110995314097,D,1191,Correct
2,relearn,13,436,D,64.81669595855645,33.77233259172757,3.240834797927823,0.5304945598238123,C,1580,Incorrect
2,relearn,13,437,A,23.751117884978207,55.8646906295087,1.1875558942489104,0.8775205083836555,A,1094,Incorrect
2,relearn,13,438,C,69.22427583405246,56.50782187540143,3.4612137917026233,0.8876227903706086,B,1016,Incorrect
2,relearn,13,439,A,33.19311298493511,25.08104935365006,1.6596556492467556,0.3939722019687502,A,709,Incorrect
2,relearn,13,440,C,78.95364738929422,41.84649882211163,3.947682369464711,0.6573232663899992,C,2668,Correct
2,relearn,13,441,D,39.91439073288785,20.562772631981662,1.9957195366443927,0.3229992771903542,B,1549,Incorrect
2,relearn,13,442,C,63.66582429656377,73.97035457129971,3.183291214828188,1.1619236125231365,C,701,Incorrect
2,relearn,13,443,C,101.50230170012509,46.3057927525683,5.075115085006255,0.7273696916506004,C,1056,Incorrect
2,relearn,13,444,B,62.08211796893889,69.99322438120335,3.104105898446944,1.0994509975852522,C,1357,Incorrect
2,relearn,13,445,A,29.868010286083624,64.81914829535313,1.4934005143041813,1.0181768004831437,A,1117,Correct
2,relearn,13,446,B,65.03400387675222,85.81051288375953,3.251700193837611,1.347908384381956,B,1485,Correct
2,relearn,13,447,D,39.124360771090714,22.303383238086283,1.9562180385545358,0.350340724654848,D,1369,Incorrect
2,relearn,13,448,C,71.9150366701189,73.51263132197852,3.5957518335059446,1.1547337125359134,B,8450,Correct
2,relearn,13,449,B,51.312573965339276,93.49946487253838,2.565628698266964,1.4686861597907173,B,879,Incorrect
2,relearn,13,450,A,6.673798060246032,49.23521632792624,0.33368990301230156,0.7733849695685864,A,565,Incorrect
2,relearn,13,451,D,36.79826095287441,31.211861494972727,1.8399130476437204,0.49027477388734236,C,5493,Incorrect
2,relearn,13,452,C,94.24214315038571,42.46880937401452,4.712107157519285,0.6670984976805467,C,615,Correct
2,relearn,13,453,C,95.39083350441082,51.641423061161355,4.769541675220541,0.8111815765493352,C,6476,Incorrect
2,relearn,13,454,D,41.64540719636179,9.939536243483325,2.0822703598180894,0.1561298702130835,D,2301,Correct
2,relearn,13,455,B,68.66717688536558,57.32772563111141,3.4333588442682785,0.9005018084485543,C,639,Incorrect
2,relearn,13,456,D,40.15370284916102,37.25854124446132,2.007685142458051,0.58525579728536,A,701,Incorrect
2,relearn,13,457,D,45.82295708963335,38.48222157000339,2.2911478544816672,0.6044773228906866,C,964,Incorrect
2,relearn,13,458,B,67.66468172772112,87.58057454402021,3.383234086386056,1.3757124479233356,C,606,Correct
2,relearn,13,459,C,94.33447596026521,62.289187537176794,4.71672379801326,0.9784362698243576,C,577,Incorrect
2,relearn,13,460,B,53.34066957312895,59.57855267448508,2.6670334786564474,0.9358577169683742,C,966,Correct
2,relearn,13,461,B,44.329852947106716,60.162135835816294,2.2164926473553357,0.9450246198303586,C,916,Correct
2,relearn,13,462,B,54.88987070696591,60.54585125678223,2.7444935353482953,0.9510520075682369,C,1013,Incorrect
2,relearn,13,463,D,42.581541716673584,46.18680200559749,2.1290770858336794,0.7255005893679571,D,3765,Correct
2,relearn,13,464,D,54.94345195183632,38.03745638838268,2.747172597591816,0.5974909677549259,C,1575,Incorrect
2,relearn,13,465,A,23.070095634413974,66.4023276332765,1.1535047817206987,1.0430453233698198,A,6124,Incorrect
2,relearn,13,466,B,45.3590649836786,49.91948697784471,2.26795324918393,0.7841334678028415,A,917,Correct
2,relearn,13,467,D,33.432172660499376,5.918708943765363,1.6716086330249686,0.09297086268234735,D,1031,Incorrect
2,relearn,13,468,A,32.58420300238714,28.087985877397767,1.629210150119357,0.4412050504328334,C,956,Incorrect
2,relearn,13,469,D,35.883796067763896,46.257799845658326,1.794189803388195,0.7266158208317364,A,1028,Incorrect
2,relearn,13,470,A,49.30948835409045,47.64840900650193,2.465474417704522,0.7484594584503409,D,1863,Incorrect
2,relearn,13,471,B,35.80729015045461,75.89569829597141,1.7903645075227306,1.192166841028456,B,996,Incorrect
2,relearn,13,472,C,66.03621217836383,67.4620358063022,3.301810608918191,1.0596911804264526,C,806,Incorrect
2,relearn,13,473,B,37.13220973680241,80.29427158429458,1.8566104868401203,1.2612594686728176,D,2731,Incorrect
2,relearn,13,474,C,85.61224943911463,41.53542858447753,4.280612471955732,0.6524369865234906,C,598,Correct
2,relearn,13,475,D,46.87499378968081,25.81987326598543,2.3437496894840404,0.40557762084519666,D,1351,Incorrect
2,relearn,13,476,C,87.85577568848163,47.93469920156892,4.392788784424082,0.752956494318427,C,893,Incorrect
2,relearn,13,477,D,60.9314824890933,21.25942490964809,3.046574124454665,0.3339422655784714,D,1023,Incorrect
2,relearn,13,478,B,46.18310422027412,88.3233658542328,2.3091552110137057,1.387380186539907,B,731,Correct
2,relearn,13,479,D,74.39016691722944,24.64094361315711,3.7195083458614717,0.38705903716307355,C,685,Incorrect
2,relearn,13,480,A,19.83581765882925,76.09746057300511,0.9917908829414626,1.1953361154649589,C,815,Incorrect
2,relearn,13,481,C,63.65724719972526,57.40239317602804,3.182862359986263,0.9016746835014128,C,830,Correct
2,relearn,13,482,D,57.87020067097378,12.474519450670934,2.893510033548689,0.19594929331645394,D,1045,Incorrect
2,relearn,13,483,A,16.30204568724999,75.25738623767172,0.8151022843624994,1.1821402586631955,A,596,Correct
2,relearn,13,484,B,33.17265331129525,90.82633902981938,1.6586326655647625,1.426696797242682,B,1453,Correct
2,relearn,13,485,D,69.86032467797595,9.690076509355887,3.4930162338987976,0.1522113658725774,D,1078,Incorrect
2,relearn,13,486,C,49.02025429437457,45.28710634100462,2.4510127147187286,0.7113682029161993,C,1303,Incorrect
2,relearn,13,487,A,7.021270758394387,46.52912459898026,0.35106353791971934,0.7308777800906026,A,830,Correct
2,relearn,13,488,C,63.843852656491165,60.520391642760146,3.192192632824558,0.9506520888863619,B,2117,Incorrect
2,relearn,13,489,A,44.79724674419016,62.5823873852445,2.239862337209508,0.9830418422679732,C,1567,Incorrect
2,relearn,13,490,B,59.73713839985252,50.414926207838064,2.986856919992626,0.7919158090290779,C,738,Incorrect
2,relearn,13,491,A,19.827776237853673,39.40843521693428,0.9913888118926836,0.6190262528349502,C,551,Correct
2,relearn,13,492,D,52.43945980406683,27.536686751272985,2.621972990203341,0.432545264010013,C,1207,Incorrect
2,relearn,13,493,D,45.7890406867947,16.126401609893065,2.289452034339735,0.2533129241323933,D,1212,Correct
2,relearn,13,494,C,68.06871909786713,39.369402258581765,3.4034359548933564,0.6184131245589094,C,725,Incorrect
2,relearn,13,495,D,26.8217882498914,33.62269483979614,1.3410894124945703,0.5281440555129749,A,1182,Correct
2,relearn,13,496,C,99.58524685670852,52.82217905167588,4.979262342835426,0.8297288482767482,C,574,Incorrect
2,relearn,13,497,D,37.04707646719426,32.96345675429238,1.8523538233597128,0.5177887678810489,C,694,Correct
2,relearn,13,498,A,23.157427848482367,32.4071230999178,1.1578713924241184,0.5090498992734093,C,782,Incorrect
2,relearn,13,499,D,51.58628471208534,2.039940573634233,2.579314235604267,0.032043311599445276,D,931,Incorrect
2,relearn,13,500,C,95.95142256407384,66.51947271753562,4.797571128203692,1.0448854340503828,C,2965,Incorrect
2,relearn,13,501,A,-0.3337190356969728,43.17301334713663,-0.016685951784848642,0.6781601078234927,A,2678,Incorrect
2,relearn,13,502,A,20.079839739830433,57.85116311752812,1.0039919869915217,0.9087239452582556,A,2566,Correct
2,relearn,13,503,D,36.42964397431936,46.09134024842534,1.8214821987159682,0.724001079592803,A,3624,Incorrect
2,relearn,13,504,C,53.85401068803736,63.25358623311208,2.692700534401868,0.993585009115767,C,739,Correct
2,relearn,13,505,B,67.21584068896173,64.50867877758408,3.360792034448087,1.0132999567022098,C,1604,Correct
2,relearn,13,506,B,71.41917195610931,69.4918813547267,3.5709585978054657,1.0915759197407147,B,966,Correct
2,relearn,13,507,D,49.406686267192114,8.174480449559379,2.470334313359606,0.12840443863624568,D,598,Correct
2,relearn,13,508,C,77.00273680486495,28.600455799672382,3.850136840243248,0.4492549091478517,C,1575,Incorrect
2,relearn,13,509,A,49.30808566547145,56.9255774953144,2.4654042832735725,0.8941848803031809,C,2540,Incorrect
2,relearn,13,510,A,46.35920422190547,57.21450028137923,2.317960211095274,0.8987232688139607,C,833,Incorrect
2,relearn,13,511,B,66.70576824137004,61.214479605457996,3.335288412068502,0.9615547971091455,B,1420,Incorrect
2,relearn,13,512,B,61.218068899599054,79.32034431325154,3.0609034449799526,1.24596105487362,B,2262,Incorrect
2,relearn,13,513,C,88.07836586194409,51.987359223123235,4.403918293097205,0.8166155290744876,C,1013,Correct
2,relearn,13,514,D,33.52965576675251,34.632049834417124,1.6764827883376257,0.5439989666928022,D,1182,Incorrect
2,relearn,13,515,A,20.026260512245564,54.737737243043675,1.0013130256122782,0.8598183659843722,A,1350,Incorrect
2,relearn,13,516,D,51.477456601775664,0.9486721629959867,2.573872830088783,0.014901707489666653,D,773,Incorrect
2,relearn,13,517,C,68.46619728959494,71.10576902117796,3.4233098644797475,1.116926807923927,C,4349,Incorrect
2,relearn,13,518,D,43.07471210324572,26.028574077941823,2.1537356051622862,0.40885588553339874,C,619,Correct
2,relearn,13,519,B,55.99024899073727,60.744481858178226,2.7995124495368633,0.9541720897588558,D,2197,Incorrect
2,relearn,13,520,B,67.03982402030528,62.05768824023911,3.351991201015264,0.9747998873715044,C,639,Incorrect
2,relearn,13,521,A,15.442235783659962,62.5818982111922,0.772111789182998,0.983034158339928,A,643,Correct
2,relearn,13,522,C,52.35846730450649,50.95215489843289,2.6179233652253244,0.8003545775674297,C,664,Incorrect
2,relearn,13,523,A,19.83416520422869,41.889540863475645,0.9917082602114345,0.6579993691947226,A,853,Incorrect
2,relearn,13,524,B,38.68817229992342,78.88126021368176,1.9344086149961712,1.239063937966037,B,927,Incorrect
2,relearn,13,525,A,24.179572516578663,37.190053024316114,1.208978625828933,0.5841799868390318,A,644,Incorrect
2,relearn,13,526,A,14.571716532603455,61.15684839429784,0.7285858266301727,0.9606495281611542,A,639,Correct
2,relearn,13,527,C,59.265114660116126,36.47337074168845,2.9632557330058065,0.5729223678687266,C,757,Correct
2,relearn,13,528,D,69.2971676586231,22.25097247302491,3.464858382931155,0.3495174582824188,D,1422,Incorrect
2,relearn,13,529,B,54.59723162735975,82.54801518464544,2.729861581367987,1.296661190362504,B,1132,Incorrect
2,relearn,13,530,D,58.47227834742784,15.89924799517373,2.9236139173713918,0.24974480349620015,C,885,Incorrect
2,relearn,13,531,B,52.34047745641315,101.08472827148877,2.617023872820657,1.5878351986391481,B,1726,Correct
2,relearn,13,532,D,66.35025171242002,15.129558718309712,3.317512585621001,0.237654552607486,C,737,Correct
2,relearn,13,533,C,96.25411987790967,39.67539658047522,4.8127059938954835,0.6232196721274128,C,1668,Correct
2,relearn,13,534,B,45.2837671107155,81.14777073706426,2.264188355535775,1.2746662020137496,B,3644,Correct
2,relearn,13,535,C,77.14420723538953,69.85547630117588,3.857210361769477,1.0972872558039504,B,1991,Correct
2,relearn,13,536,C,80.77672903810866,41.65016021587597,4.038836451905433,0.6542391867751691,C,902,Correct
2,relearn,13,537,B,36.02914295238861,62.96041738272144,1.8014571476194305,0.9889799235825238,A,1142,Correct
2,relearn,13,538,A,10.070611005580156,27.70477999106771,0.5035305502790078,0.435185666446299,A,559,Incorrect
2,relearn,13,539,D,61.53934939444533,31.61272726292062,3.0769674697222666,0.4965715586456459,C,2413,Incorrect
2,relearn,13,540,D,49.352751815313795,36.46330866299625,2.46763759076569,0.5727643131062304,C,1102,Incorrect
2,relearn,13,541,C,65.59508616910699,72.33344232031112,3.2797543084553498,1.1362110550117523,B,1405,Incorrect
2,relearn,13,542,C,83.11804057883111,70.36805701598823,4.155902028941556,1.1053388548440815,C,935,Incorrect
2,relearn,13,543,B,26.087111448118435,72.36770391628686,1.3043555724059217,1.1367492349028403,A,1173,Incorrect
2,relearn,13,544,D,68.96048863082126,32.592937885958214,3.448024431541063,0.5119686711071739,C,1134,Incorrect
2,relearn,13,545,C,74.6335775560098,25.828982188379225,3.73167887780049,0.40572070346356887,D,961,Correct
2,relearn,13,546,A,45.04217232477893,36.05297582044335,2.2521086162389468,0.5663188198877763,D,897,Incorrect
2,relearn,13,547,A,20.924171974629896,75.6184052161984,1.0462085987314949,1.1878111315169249,A,1342,Correct
2,relearn,13,548,D,73.78117242698733,19.359093387051512,3.6890586213493664,0.3040919278245989,C,695,Incorrect
2,relearn,13,549,C,82.96022049599252,58.525313375669434,4.148011024799626,0.9193134727502177,C,628,Incorrect
2,relearn,13,550,A,22.980213827057835,38.95565386708065,1.1490106913528917,0.6119139800230369,C,679,Incorrect
2,relearn,13,551,B,73.79262329079646,72.26778393653272,3.6896311645398225,1.1351796955311284,C,556,Incorrect
2,relearn,13,552,B,53.46815798687703,67.40783509986439,2.6734078993438515,1.0588397977206307,C,835,Incorrect
2,relearn,13,553,B,32.942225366302864,67.51749198769774,1.6471112683151432,1.0605622840867948,A,1359,Incorrect
2,relearn,13,554,C,78.06531892198349,40.80032205692902,3.9032659460991743,0.6408899601907291,C,645,Incorrect
2,relearn,13,555,B,65.45563463087461,69.77987987945696,3.2727817315437306,1.0960997899884009,C,1678,Incorrect
2,relearn,13,556,D,47.57313850080452,26.688354298730626,2.378656925040226,0.4192196890064685,C,1094,Correct
2,relearn,13,557,D,67.99316380630802,16.895968220075105,3.399658190315401,0.2654012481773729,D,788,Incorrect
2,relearn,13,558,C,73.371162251001,59.95298949361215,3.66855811255005,0.9417393567693899,C,848,Incorrect
2,relearn,13,559,B,72.17247986755402,61.44609504407563,3.6086239933777007,0.965193003911241,C,871,Incorrect
2,relearn,13,560,B,67.674602980402,94.29134838767169,3.3837301490201,1.481125036958926,B,851,Incorrect
2,relearn,13,561,D,43.311790654919726,41.091244642206675,2.165589532745986,0.6454597614740871,C,502,Incorrect
2,relearn,13,562,C,69.97748372127676,57.81762965908155,3.498874186063838,0.9081972029247296,C,613,Incorrect
2,relearn,13,563,B,68.32262539961073,83.4115530904773,3.4161312699805366,1.3102256120677924,B,950,Incorrect
2,relearn,13,564,D,41.11987783301124,0.9313798854795863,2.055993891650562,0.014630081029619855,D,495,Correct
2,relearn,13,565,B,67.03474204591504,87.03723153936724,3.351737102295752,1.36717763596435,B,947,Incorrect
2,relearn,13,566,A,18.713380578168948,37.18170961512697,0.9356690289084475,0.5840489288739593,A,589,Incorrect
2,relearn,13,567,D,66.7115371811949,20.306852650271725,3.3355768590597448,0.3189792955181203,C,647,Correct
2,relearn,13,568,D,42.058334978085156,38.86508233266059,2.1029167489042577,0.610491285687245,A,766,Incorrect
2,relearn,13,569,C,53.077994607464504,63.5872111060187,2.6538997303732255,0.9988255763646582,A,915,Incorrect
2,relearn,13,570,A,49.398700301057104,50.473378248469636,2.469935015052855,0.7928339715362555,C,1349,Incorrect
2,relearn,13,571,D,56.8663311642477,-0.7052672529801782,2.843316558212385,-0.01107831210389991,D,879,Incorrect
2,relearn,13,572,D,25.913119520538924,19.114772376726435,1.2956559760269462,0.3002541423688244,C,923,Correct
2,relearn,13,573,B,64.54622339619227,82.55439239963101,3.2273111698096137,1.2967613634212491,C,1767,Incorrect
2,relearn,13,574,A,12.025828293903416,61.55410792346709,0.6012914146951708,0.9668896662531874,A,647,Correct
2,relearn,13,575,B,48.91090265817242,77.83024347043579,2.4455451329086206,1.22255460556913,B,2429,Incorrect
2,relearn,13,576,D,49.779381812528,27.13498790677566,2.4889690906264,0.4262353933158714,C,1014,Correct
2,relearn,13,577,D,32.83012161914218,13.819139133152916,1.6415060809571091,0.2170705298982421,D,1324,Incorrect
2,relearn,13,578,B,40.27658320096974,85.4095085107139,2.013829160048487,1.3416094224198685,C,729,Incorrect
2,relearn,13,579,C,49.54063538250644,45.99097852432677,2.477031769125322,0.7224246013171546,C,2509,Incorrect
2,relearn,13,580,B,44.42099071487983,91.47399920874231,2.221049535743991,1.436870219543317,D,1258,Incorrect
2,relearn,13,581,C,61.17486614471623,69.94181398241557,3.0587433072358117,1.098643444929503,C,616,Correct
2,relearn,13,582,B,51.15245589871056,55.44537103982458,2.5576227949355284,0.8709338516713659,C,956,Correct
2,relearn,13,583,D,42.570696179894064,9.975458866655488,2.1285348089947034,0.15669414145836022,D,718,Correct
2,relearn,13,584,D,67.75943086118097,18.698443623096217,3.3879715430590487,0.29371446559940995,C,1886,Incorrect
2,relearn,13,585,C,90.16880211601699,44.02187532069364,4.508440105800849,0.6914940005236848,C,662,Incorrect
2,relearn,13,586,B,56.106817673930294,98.13192308714169,2.805340883696515,1.5414526432660147,B,1036,Incorrect
2,relearn,13,587,B,32.51070578460193,88.12132438542861,1.6255352892300965,1.384206526569328,A,1190,Incorrect
2,relearn,13,588,C,83.27299324613413,28.268351455992107,4.163649662306707,0.44403822631619566,C,687,Incorrect
2,relearn,13,589,D,62.454926934377355,20.86761980812166,3.1227463467188676,0.32778780543549924,C,924,Correct
2,relearn,13,590,D,68.98318497117151,30.220854813387366,3.4491592485585754,0.4747080773347074,C,1054,Incorrect
2,relearn,13,591,C,60.57329928588807,59.26291560793746,3.0286649642944035,0.9308997015210411,C,910,Incorrect
2,relearn,13,592,D,42.673524715640255,23.069359571804444,2.133676235782013,0.36237265276901104,C,372,Incorrect
2,relearn,13,593,A,29.532707530941284,63.63237784141018,1.4766353765470643,0.9995350537851208,A,1269,Correct
2,relearn,13,594,C,98.27793964213299,62.82182384337232,4.91389698210665,0.986802901357253,C,941,Correct
2,relearn,13,595,D,48.827439490076245,38.694880826592126,2.441371974503812,0.6078177666817718,A,765,Incorrect
2,relearn,13,596,D,43.575779158370736,36.03193274407899,2.1787889579185364,0.5659882760172004,A,590,Correct
2,relearn,13,597,D,50.68683171635892,28.115803666436857,2.5343415858179457,0.441642011241255,C,1005,Incorrect
2,relearn,13,598,D,41.69551311572041,29.550672555442652,2.0847756557860206,0.4641808790440808,D,1295,Incorrect
2,relearn,13,599,D,51.33455261584806,45.083710462762596,2.5667276307924034,0.7081732679319214,C,1015,Incorrect
2,relearn,13,600,C,85.20149018160706,31.81820306321811,4.2600745090803525,0.4997991649691714,C,694,Correct
2,relearn,13,601,D,69.73721252092321,34.33759696258035,3.4868606260461603,0.5393737117978481,C,1887,Incorrect
2,relearn,13,602,B,45.30398870963884,88.5256911663856,2.265199435481942,1.390558305111379,B,1478,Correct
2,relearn,13,603,B,51.71142549365194,75.4672214958988,2.585571274682597,1.185436343191747,B,1412,Correct
2,relearn,13,604,A,48.29510308785021,43.55191995211931,2.4147551543925103,0.6841119588565439,C,3117,Incorrect
2,relearn,13,605,A,49.27939648274487,60.78262303976473,2.4639698241372434,0.9547712100382129,B,2302,Incorrect
2,relearn,13,606,A,5.685199227017193,38.330324516623605,0.2842599613508597,0.6020913295556872,A,489,Correct
2,relearn,13,607,B,56.283809769023804,86.9040486108056,2.8141904884511906,1.3650856034145855,B,891,Correct
2,relearn,13,608,C,54.77032847603215,36.26513236134619,2.7385164238016073,0.5696513670393333,D,2436,Incorrect
2,relearn,13,609,A,5.278706899292946,57.17558246850817,0.26393534496464727,0.8981119492389131,A,789,Correct
2,relearn,13,610,A,9.61372805968575,29.881473938106563,0.48068640298428744,0.46937709501195224,A,663,Correct
2,relearn,13,611,D,41.50405229679313,37.818430534284666,2.0752026148396565,0.5940505176840231,A,1381,Incorrect
2,relearn,13,612,C,78.19076252607378,25.485997815979893,3.9095381263036892,0.4003331175404397,C,1151,Correct
2,relearn,13,613,D,55.1547056871242,26.300538340338605,2.75773528435621,0.4131278901773222,D,878,Correct
2,relearn,13,614,C,73.38495863911155,41.515324495651114,3.6692479319555775,0.6521211922346697,C,1211,Correct
2,relearn,13,615,C,88.49043896842784,42.74889961944222,4.424521948421392,0.671498144967436,C,1560,Correct
2,relearn,13,616,A,25.435859143408525,75.23520275740202,1.2717929571704263,1.1817918013699638,A,814,Correct
2,relearn,13,617,D,55.85009806769939,41.45893311231468,2.7925049033849696,0.6512353984565921,C,3734,Incorrect
2,relearn,13,618,D,35.2079499078277,44.033847946126315,1.7603974953913848,0.6916820660842021,C,4967,Incorrect
2,relearn,13,619,B,76.33944266674368,77.47003718213489,3.816972133337184,1.2168964984236152,C,668,Incorrect
2,relearn,13,620,C,90.75429175852784,40.11723872968065,4.537714587926392,0.6301601123773631,C,669,Correct
2,relearn,13,621,A,8.160303016656908,68.24072974268358,0.4080151508328454,1.0719228761761062,A,632,Correct
2,relearn,13,622,B,59.579104604518896,53.72395257134494,2.978955230225945,0.8438938735997185,C,695,Incorrect
2,relearn,13,623,B,70.14420675442585,72.42003852370884,3.5072103377212924,1.1375713049938674,C,668,Incorrect
2,relearn,13,624,D,43.57507718226582,8.925108050274904,2.178753859113291,0.1401952694161938,D,1341,Correct
2,relearn,13,625,A,3.353967443181844,50.7972758243495,0.1676983721590922,0.7979217427607539,A,701,Correct
2,relearn,13,626,B,39.10320523101822,83.44650900892685,1.9551602615509112,1.3107746983507955,B,1089,Correct
2,relearn,13,627,A,44.068417260139654,31.28510996118189,2.2034208630069827,0.49142535810398946,D,1206,Incorrect
2,relearn,13,628,A,7.3388783538103475,37.68056342193626,0.3669439176905173,0.5918849061473963,A,620,Correct
2,relearn,13,629,D,31.46256258286861,8.242466911492723,1.5731281291434305,0.12947236748301247,B,4603,Incorrect
2,relearn,13,630,A,32.980965960014274,54.54547506627613,1.6490482980007135,0.8567983187738916,A,1296,Correct
2,relearn,13,631,A,44.55865511845009,34.42224064554969,2.227932755922504,0.5407032916607946,C,933,Incorrect
2,relearn,13,632,C,48.29835749205856,49.025059142775504,2.414917874602928,0.7700838282237432,A,773,Incorrect
2,relearn,13,633,B,55.374198908734165,49.22099811735609,2.768709945436708,0.7731616304392146,C,720,Incorrect
2,relearn,13,634,C,99.1272767383014,55.15104976697688,4.95636383691507,0.8663106639284981,C,595,Correct
2,relearn,13,635,C,72.86713495366101,64.24171764287057,3.64335674768305,1.00910654100416,B,1390,Incorrect
2,relearn,13,636,A,45.65589117097112,58.50615063932639,2.282794558548556,0.9190124651916278,A,1744,Correct
2,relearn,13,637,C,67.45895197774834,38.59189644890928,3.3729475988874174,0.6062000918599572,C,781,Correct
2,relearn,13,638,B,31.353653647048947,84.91762344232392,1.5676826823524472,1.333882909833546,B,885,Correct
2,relearn,13,639,C,52.75013753113676,37.32730749678717,2.637506876556838,0.586335975050969,C,1669,Correct
2,relearn,13,640,D,65.37032044321343,34.26897468096074,3.2685160221606715,0.5382957955188044,C,741,Incorrect
2,relearn,13,641,D,41.11042299460701,5.8678682860731435,2.0555211497303505,0.09217225949879956,D,1326,Correct
2,relearn,13,642,D,55.61311689107587,48.50554773629925,2.7806558445537934,0.7619233621335335,C,575,Incorrect
2,relearn,13,643,B,60.02054061077512,92.67096234111192,3.001027030538756,1.4556720724596677,B,782,Correct
2,relearn,13,644,D,49.32833464360676,-0.44917152332846655,2.466416732180338,-0.007055569789452234,D,643,Correct
2,relearn,13,645,C,81.1713138734426,25.502039503692885,4.05856569367213,0.4005850997817913,C,788,Correct
2,relearn,13,646,C,99.58495195619923,48.20049110546688,4.9792475978099615,0.7571315437817745,C,701,Correct
2,relearn,13,647,C,56.17043320548687,68.23084370798287,2.8085216602743435,1.0717675867061618,B,1221,Incorrect
2,relearn,13,648,A,30.347451221154262,55.05618697596318,1.5173725610577131,0.8648205626917598,A,503,Correct
2,relearn,13,649,A,27.646524854762824,35.71490514176588,1.382326242738141,0.5610084180851401,A,668,Correct
2,relearn,13,650,D,35.07833184054408,32.37845387404114,1.753916592027204,0.5085995641264182,A,966,Incorrect
2,relearn,13,651,A,24.123205843803497,53.50613234723585,1.2061602921901748,0.8404723615203967,A,501,Correct
2,relearn,13,652,B,38.558215206702236,72.26608458726362,1.927910760335112,1.1351530022152299,A,838,Incorrect
2,relearn,13,653,C,59.4473366319685,65.43632187085491,2.972366831598425,1.0278713403370745,C,2583,Correct
2,relearn,13,654,D,39.32747469552241,46.65945200698651,1.9663737347761208,0.7329249582283718,A,1439,Incorrect
2,relearn,13,655,D,74.78569948768985,35.15316881512295,3.7392849743844927,0.5521846844999604,C,759,Incorrect
2,relearn,13,656,D,56.57209391539918,12.305928467608949,2.8286046957699593,0.1933010723472089,D,787,Correct
2,relearn,13,657,C,97.03323780419719,63.03275239243386,4.85166189020986,0.9901161592580733,C,901,Correct
2,relearn,13,658,D,47.51514571590784,22.915437044222266,2.375757285795392,0.35995484335964034,A,1485,Incorrect
2,relearn,13,659,D,67.45833824534216,38.8829800933443,3.3729169122671077,0.610772423054643,C,614,Incorrect
2,relearn,13,660,D,49.67628502528415,-0.5251344655953325,2.483814251264208,-0.008248792896305493,D,732,Correct
2,relearn,13,661,B,56.32612351554702,60.28341966500456,2.816306175777351,0.9469297417642438,C,1920,Incorrect
2,relearn,13,662,D,63.03032369101183,23.298499393738357,3.1515161845505917,0.3659719726751734,D,1390,Correct
2,relearn,13,663,B,53.286962978269486,76.55196633640183,2.664348148913474,1.2024754753014657,B,779,Correct
2,relearn,13,664,A,44.46604018430879,33.85366381998663,2.2233020092154394,0.5317721077698429,C,791,Incorrect
2,relearn,13,665,C,90.55759280463653,53.269357937912275,4.527879640231827,0.8367531177959516,C,614,Correct
2,relearn,13,666,C,57.09977591530844,48.65449876974678,2.854988795765422,0.7642630794956506,C,932,Correct
2,relearn,13,667,D,45.885308553589354,47.3203327597158,2.294265427679468,0.7433060488167379,A,2243,Incorrect
2,relearn,13,668,C,89.50314654964127,70.19147188491092,4.475157327482063,1.1025650620914536,C,687,Correct
2,relearn,13,669,C,66.43435989760437,67.2685487925911,3.3217179948802187,1.0566518935222537,B,1862,Incorrect
2,relearn,13,670,B,40.154705215160185,62.36925310922399,2.0077352607580092,0.9796939368891023,A,646,Incorrect
2,relearn,13,671,A,17.293003036449356,58.93166313673998,0.8646501518224678,0.9256963998710537,A,587,Correct
2,relearn,13,672,B,55.76773652635654,77.22121909086817,2.788386826317827,1.2129880729855966,C,1701,Incorrect
2,relearn,13,673,C,77.0909801016863,27.33665121527245,3.8545490050843148,0.429403113158232,C,1934,Correct
2,relearn,13,674,B,36.65009884514905,79.092935433926,1.8325049422574526,1.2423889245503688,A,1295,Incorrect
2,relearn,13,675,A,48.22508912783485,40.31194881293666,2.4112544563917426,0.633218611213048,C,1821,Incorrect
2,relearn,13,676,B,42.991732282507,79.80088052539065,2.14958661412535,1.2535093000428206,B,1543,Correct
2,relearn,13,677,A,33.48499822890194,74.07206346432413,1.6742499114450968,1.163521252078788,B,2901,Incorrect
2,relearn,13,678,D,55.62025485490318,27.49985850581916,2.781012742745159,0.4319667672832012,C,1239,Incorrect
2,relearn,13,679,D,64.78810370642982,7.080218217828708,3.239405185321491,0.11121580769471644,D,900,Correct
2,relearn,13,680,D,31.700693471118576,35.640760186962936,1.5850346735559286,0.5598437518585918,A,1358,Incorrect
2,relearn,13,681,B,45.728456323040824,87.79161218570295,2.2864228161520415,1.3790274194470427,B,1229,Correct
2,relearn,13,682,C,67.2822945112248,27.734815164824372,3.3641147255612402,0.43565745785241516,C,604,Correct
2,relearn,13,683,D,54.56533710701282,40.122716873956485,2.7282668553506415,0.6302461628664247,C,1357,Incorrect
2,relearn,13,684,D,43.977603648111284,28.655251257651805,2.1988801824055644,0.45011563418904293,A,1127,Incorrect
2,relearn,13,685,C,53.95383776674436,44.93688464213226,2.697691888337218,0.7058669333346735,D,1526,Incorrect
2,relearn,13,686,D,46.669075991218705,24.270477969528642,2.3334537995609352,0.38123977644092044,D,1103,Correct
2,relearn,13,687,B,40.952142212991106,88.81934094425358,2.0476071106495555,1.3951709450357708,B,709,Correct
2,relearn,13,688,D,27.596768966198745,11.784199227330054,1.379838448309937,0.1851057686050931,D,1005,Correct
2,relearn,13,689,C,74.87642653144935,36.37577556012581,3.7438213265724674,0.571389346341612,C,992,Correct
2,relearn,13,690,D,69.44237568756304,14.198925935153657,3.4721187843781522,0.22303620703372154,D,1181,Correct
2,relearn,13,691,D,34.71033458320383,25.960117328875924,1.7355167291601916,0.4077805694336284,A,2068,Incorrect
2,relearn,13,692,C,76.9222815931181,65.9094244443597,3.846114079655905,1.0353028181836599,C,647,Correct
2,relearn,13,693,C,77.80273871824718,58.993495193811285,3.8901369359123588,0.9266676555523117,C,925,Correct
2,relearn,13,694,C,84.3070043932217,58.01664434622872,4.215350219661085,0.9113233183202197,C,619,Correct
2,relearn,13,695,D,67.72919845698,13.051224497195602,3.3864599228489998,0.20500815500370417,D,1302,Correct
2,relearn,13,696,C,88.78150259856756,67.97011097644206,4.439075129928378,1.0676720065363665,C,606,Correct
2,relearn,13,697,D,44.82533786997285,4.449279957603629,2.2412668934986426,0.06988912614285933,D,1204,Correct
2,relearn,13,698,A,26.665246965817126,50.96801508288619,1.333262348290856,0.800603708762245,A,988,Correct
2,relearn,13,699,B,67.28785545023086,69.38469578814177,3.364392772511543,1.0898922527979442,C,639,Incorrect
2,relearn,13,700,A,39.260742801581955,36.3621514100065,1.9630371400790978,0.5711753386919808,A,1336,Correct
2,relearn,13,701,C,60.16156693979613,54.16705849167228,3.0080783469898065,0.8508541651200313,C,916,Correct
2,relearn,13,702,C,73.45960125589268,56.06676049773914,3.672980062794634,0.8806946144513786,C,655,Correct
2,relearn,13,703,D,71.92734474314139,39.82355486114608,3.5963672371570694,0.6255469369580331,C,932,Incorrect
2,relearn,13,704,C,67.18104380015693,63.800855372594675,3.3590521900078465,1.0021814926564416,C,694,Correct
2,relearn,13,705,A,45.44828134132524,35.13872710663544,2.2724140670662623,0.5519578346735122,D,2438,Incorrect
2,relearn,13,706,D,35.93829865004677,6.545488867786069,1.7969149325023384,0.10281629870595244,D,1079,Correct
2,relearn,13,707,D,37.9825309813766,19.46426224520267,1.89912654906883,0.30574391638536935,D,1341,Correct
2,relearn,13,708,A,37.2971080404525,47.97803460567195,1.864855402022625,0.7536372052542792,B,1045,Incorrect
2,relearn,13,709,A,9.575324176221686,42.00110449305906,0.4787662088110843,0.6597518065902579,A,559,Correct
2,relearn,13,710,A,32.90243444804362,62.46108170736071,1.645121722402181,0.9811363771355812,A,1437,Correct
2,relearn,13,711,B,62.11046960627827,62.33266072720885,3.105523480313914,0.9791191450965215,C,718,Incorrect
2,relearn,13,712,D,25.175706012859965,15.63264452241481,1.2587853006429983,0.24555700593899543,A,581,Incorrect
2,relearn,13,713,C,67.86333169673527,74.52925054580098,3.3931665848367634,1.170702729961207,C,691,Correct
2,relearn,13,714,A,17.212092151422354,41.55131645628549,0.8606046075711177,0.6526865526302559,A,1560,Correct
2,relearn,13,715,D,50.29148438132661,2.7222374356382524,2.5145742190663305,0.04276080564564125,D,850,Correct
2,relearn,13,716,C,59.676508097440916,46.58239896792245,2.9838254048720456,0.7317146119210697,C,767,Correct
2,relearn,13,717,B,60.01412809970223,91.80026546250627,3.0007064049851118,1.4419951978730126,B,1038,Correct
2,relearn,13,718,D,46.402925323823354,31.91779417888599,2.3201462661911676,0.5013635385558964,C,1390,Incorrect
2,relearn,13,719,A,12.022173362590387,32.92992354829387,0.6011086681295194,0.5172620295129678,A,575,Correct
2,relearn,13,720,B,59.01487299053628,96.80044666560474,2.9507436495268142,1.5205378605443722,B,1155,Correct
2,relearn,13,721,B,50.51539662873027,83.40297617403385,2.525769831436514,1.3100908861793465,B,678,Correct
2,relearn,13,722,C,54.29464868801108,43.43912907539607,2.714732434400554,0.6823402439080154,C,875,Correct
2,relearn,13,723,C,99.26254709432327,48.2558090570476,4.963127354716163,0.7580004761332627,C,1157,Correct
2,relearn,13,724,A,48.418008786210734,62.058792414375105,2.420900439310537,0.9748172316982742,B,2766,Incorrect
2,relearn,13,725,B,57.545781529374956,51.47039475867831,2.877289076468748,0.8084950702561519,C,831,Incorrect
2,relearn,13,726,B,39.268991169969155,54.028288649385004,1.9634495584984577,0.8486743735346837,C,823,Incorrect
2,relearn,13,727,D,73.62612667042468,25.82031383660882,3.6813063335212344,0.40558454131236577,C,675,Incorrect
2,relearn,13,728,C,69.24151195843676,66.03905627632442,3.4620755979218383,1.0373390702385186,C,615,Correct
2,relearn,13,729,C,57.25267919325884,48.2681803140705,2.8626339596629418,0.7581948033841567,B,3334,Incorrect
2,relearn,13,730,B,74.59252266191501,71.856417829811,3.729626133095751,1.1287179718370643,C,660,Incorrect
2,relearn,13,731,C,69.84458209594376,28.53020506167161,3.4922291047971883,0.44815141313578927,C,1312,Correct
2,relearn,13,732,C,55.283266816415875,36.75920633137562,2.764163340820794,0.5774122628122053,D,1764,Incorrect
2,relearn,13,733,A,23.745872092951917,29.79935159576773,1.1872936046475957,0.4680871202750159,A,830,Correct
2,relearn,13,734,B,62.74587529192043,73.7255367072078,3.1372937645960213,1.1580780225066432,B,827,Correct
2,relearn,13,735,A,19.056304463136513,31.103429247828604,0.9528152231568257,0.4885715241321412,A,529,Correct
2,relearn,13,736,B,71.68470821783099,78.61134354941248,3.5842354108915493,1.2348240969182882,B,1483,Correct
2,relearn,13,737,D,48.85340119047008,48.15951531748218,2.442670059523504,0.7564878976092357,C,3517,Incorrect
2,relearn,13,738,C,86.6977307540586,37.88209541673911,4.33488653770293,0.5950505633190759,C,631,Correct
2,relearn,13,739,D,60.26519482669747,13.248030267217777,3.013259741334873,0.20809957281013294,D,1198,Correct
2,relearn,13,740,D,53.260568531888985,30.766481234681795,2.6630284265944493,0.4832787571184228,A,1502,Incorrect
2,relearn,13,741,A,13.870501014258258,31.339942981739735,0.6935250507129129,0.49228667317678276,A,645,Correct
2,relearn,13,742,D,28.929675502998784,34.43397698020403,1.446483775149939,0.5408876455744451,A,543,Incorrect
2,relearn,13,743,D,60.65386774628544,35.1530882071075,3.032693387314272,0.5521834183122146,C,590,Incorrect
2,relearn,13,744,B,38.41661925682548,68.85357241731238,1.9208309628412739,1.081549386398207,C,1005,Incorrect
2,relearn,13,745,B,23.947253526763546,76.8892160333575,1.1973626763381773,1.2077729811533724,B,4068,Correct
2,relearn,13,746,D,63.23730942041138,33.468024073470175,3.1618654710205694,0.5257144927969012,C,750,Incorrect
2,relearn,13,747,A,50.01973998974859,40.64348568660644,2.5009869994874294,0.6384263802466236,C,626,Incorrect
2,relearn,13,748,A,20.009615671196975,43.9335351778149,1.0004807835598486,0.6901063568042602,A,663,Correct
2,relearn,13,749,C,93.42946364452261,41.864734915160156,4.671473182226131,0.6576097182697562,C,550,Correct
2,relearn,13,750,C,88.29710112816068,31.942283309214986,4.414855056408033,0.5017482129155683,C,540,Correct
2,relearn,13,751,A,42.1900135910188,58.8631898728233,2.1095006795509397,0.924620824356614,B,1973,Incorrect
2,relearn,13,752,B,40.41667732115073,67.2353587273022,2.0208338660575365,1.056130545195835,B,1781,Correct
2,relearn,13,753,A,10.101191710054831,61.91383992913474,0.5050595855027415,0.9725403233845206,A,541,Correct
2,relearn,13,754,B,57.78751332793185,55.093917119911154,2.8893756663965924,0.8654132264069891,C,1200,Incorrect
2,relearn,13,755,B,38.553901804235615,59.791578094405025,1.9276950902117806,0.939203912439616,C,663,Incorrect
2,relearn,13,756,D,49.08522332726918,19.96373179255391,2.4542611663634593,0.3135895656886218,B,787,Incorrect
2,relearn,13,757,C,61.77269317235182,68.49334594111386,3.088634658617591,1.0758909621419377,C,889,Correct
2,relearn,13,758,C,79.23899943770644,73.90572073313281,3.9619499718853217,1.1609083465673444,B,658,Incorrect
2,relearn,13,759,D,39.973928832138895,16.49763286373033,1.9986964416069446,0.25914421103158375,D,3664,Correct
2,relearn,13,760,D,64.13676003309006,10.58339885702499,3.206838001654503,0.16624364049620163,C,999,Incorrect
2,relearn,13,761,D,71.21783351023885,31.33628405200347,3.560891675511942,0.49222919884288546,C,651,Incorrect
2,relearn,13,762,B,52.65334782959008,51.96623180487197,2.6326673914795045,0.8162836603646502,B,1181,Correct
2,relearn,13,763,A,25.50065320872366,42.39338172982863,1.275032660436183,0.665913683016287,A,710,Correct
2,relearn,13,764,B,48.441818554815306,82.77113406097435,2.4220909277407654,1.3001659334762647,B,1039,Correct
2,relearn,13,765,B,47.71735783013736,56.11135501616444,2.385867891506868,0.881395103508755,C,830,Incorrect
2,relearn,13,766,B,44.93618019238334,90.40447161906759,2.246809009619167,1.4200701194506484,B,829,Correct
2,relearn,13,767,D,30.536656067664868,9.860924622832133,1.5268328033832435,0.15489504176346064,D,612,Correct
2,relearn,13,768,B,68.04205035588487,76.82488461422034,3.402102517794243,1.2067624655845905,B,854,Correct
2,relearn,13,769,C,87.75258164487815,67.08517571445446,4.387629082243907,1.0537714759465526,B,1048,Incorrect
2,relearn,13,770,A,37.05718591309102,65.79571733580407,1.8528592956545509,1.0335167110991632,D,1965,Incorrect
2,relearn,13,771,B,58.85061026042375,64.90159061528864,2.942530513021188,1.0194718014164152,D,2069,Incorrect
2,relearn,13,772,A,41.624587849995244,48.06968903290228,2.081229392499762,0.7550769096305583,B,758,Incorrect
2,relearn,13,773,B,50.25118755912628,67.90255671620605,2.512559377956314,1.066610866697986,D,509,Incorrect
2,relearn,13,774,D,45.646648566413404,35.33006234511949,2.2823324283206703,0.5549633215714838,B,734,Incorrect
2,relearn,13,775,C,82.25546720203165,58.457773267810005,4.112773360101582,0.9182525552168486,C,772,Correct
2,relearn,13,776,C,75.53387399417626,29.043349662836384,3.776693699708813,0.45621186968203187,B,959,Incorrect
2,relearn,13,777,C,67.89396798327108,29.87441815072669,3.3946983991635538,0.46926626296296275,C,468,Correct
2,relearn,13,778,B,64.98706464545522,81.26947296739553,3.249353232272761,1.2765778961774203,B,792,Correct
2,relearn,13,779,C,64.99814194225087,63.124814903742006,3.249907097112543,0.9915622738040568,B,651,Incorrect
2,relearn,13,780,B,39.14856948096688,98.34929362636036,1.9574284740483439,1.544867091711596,B,990,Correct
2,relearn,13,781,C,55.554352754288594,36.32647560185111,2.7777176377144297,0.5706149444079215,C,732,Correct
2,relearn,13,782,A,47.355321820169124,42.69651822146346,2.3677660910084564,0.6706753398920616,D,2334,Incorrect
2,relearn,13,783,A,9.077819510684726,31.572692040261963,0.4538909755342363,0.49594268683869963,A,532,Correct
2,relearn,13,784,A,49.044515597870756,61.41205921388353,2.452225779893538,0.9646583703407893,C,1092,Incorrect
2,relearn,13,785,D,48.98768658580366,36.603742607874736,2.449384329290183,0.5749702443539549,C,870,Incorrect
2,relearn,13,786,C,58.827610670823404,53.21012457542131,2.94138053354117,0.8358226823137065,C,717,Correct
2,relearn,13,787,D,51.06341759594253,5.4879460491854815,2.5531708797971264,0.08620445495709118,D,903,Correct
2,relearn,13,788,B,43.1796680968581,90.76313785790158,2.158983404842905,1.4257040355557062,B,446,Correct
2,relearn,13,789,A,9.679023226633504,58.92830389504355,0.4839511613316752,0.925643633025878,A,374,Correct
2,relearn,13,790,A,35.646118520217335,34.99301057430823,1.7823059260108667,0.5496689247361835,A,1173,Correct
2,relearn,13,791,B,56.537579594999364,65.55403963161598,2.826878979749968,1.0297204465990946,C,876,Incorrect
2,relearn,13,792,D,58.96304781144351,8.111994828578588,2.9481523905721754,0.12742291679710444,D,909,Correct
2,relearn,13,793,B,64.0802651679489,52.58272594821834,3.2040132583974446,0.8259675277232406,C,773,Incorrect
2,relearn,13,794,C,98.7707157923693,56.204870088710734,4.938535789618465,0.8828640348333118,C,894,Correct
2,relearn,13,795,D,60.94962123155602,16.46286435838335,3.047481061577801,0.25859806862671186,D,2455,Correct
2,relearn,13,796,B,58.231507137087426,75.67446927768052,2.9115753568543714,1.1886917837353381,B,838,Correct
2,relearn,13,797,A,5.2711708813490326,65.5159116417912,0.2635585440674516,1.0291215335354462,A,738,Correct
2,relearn,13,798,D,36.30124323416931,11.317588722926223,1.8150621617084655,0.17777626794147855,D,2775,Correct
2,relearn,13,799,B,44.29728496756655,65.05526211439837,2.2148642483783276,1.0218856676797616,C,1286,Incorrect
2,relearn,13,800,A,42.40188383719549,37.087292843992294,2.1200941918597747,0.5825658337010976,B,1870,Incorrect
2,relearn,13,801,B,58.5397509966201,84.01301929313456,2.926987549831005,1.3196734210860455,D,836,Incorrect
2,relearn,13,802,C,59.251149498894286,44.410155791021054,2.9625574749447146,0.6975930958892497,B,2532,Incorrect
2,relearn,13,803,B,65.02127527316793,54.442636583876116,3.2510637636583963,0.8551829356698205,B,848,Correct
2,relearn,13,804,B,72.1826426630016,87.34783012601308,3.60913213315008,1.3720565071544593,B,1124,Correct
2,relearn,13,805,A,4.898500138618239,67.16815889633294,0.24492500693091196,1.0550749727193574,A,551,Correct
2,relearn,13,806,C,57.6561954833511,65.72665725406725,2.882809774167555,1.0324319178719596,B,1173,Incorrect
2,relearn,13,807,A,11.290889488430642,61.799331291135466,0.5645444744215321,0.9707416259049649,C,844,Incorrect
2,relearn,13,808,C,57.09764801074879,64.09053875177688,2.8548824005374396,1.006731828535971,B,1070,Incorrect
2,relearn,13,809,B,49.08779587283023,100.19361735803089,2.454389793641511,1.573837661142883,B,824,Correct
2,relearn,13,810,D,24.69906515574015,23.522228702625693,1.2349532577870077,0.36948630444113917,D,948,Correct
2,relearn,13,811,C,73.75714825519488,62.859969831793315,3.687857412759744,0.9874020971421894,B,797,Incorrect
2,relearn,13,812,D,45.010770060281644,10.137494644700848,2.250538503014082,0.15923939350799027,D,599,Correct
2,relearn,13,813,A,34.746695027218834,42.119048667006965,1.7373347513609416,0.6616044693423002,B,1716,Incorrect
2,relearn,13,814,A,44.25260565269805,61.37226923122995,2.2126302826349025,0.9640333507548345,B,829,Incorrect
2,relearn,13,815,C,89.72667986041928,45.47667469157992,4.486333993020964,0.7143459356038018,B,703,Incorrect
2,relearn,13,816,D,57.07277407122895,28.714937566547945,2.8536387035614474,0.451053184536783,A,1469,Incorrect
2,relearn,13,817,A,31.451619253995183,38.08966784836127,1.572580962699759,0.5983111034504357,B,791,Incorrect
2,relearn,13,818,D,69.99419213501622,12.72322964961448,3.4997096067508107,0.19985602398582347,C,708,Incorrect
2,relearn,13,819,D,57.01208260504015,9.904442255036777,2.8506041302520075,0.15557861513163931,D,855,Correct
2,relearn,13,820,C,74.87042281733953,45.618183923870895,3.7435211408669766,0.7165687574267041,B,822,Incorrect
2,relearn,13,821,D,36.97112734697967,36.04566926314274,1.8485563673489835,0.5662040487540833,A,963,Incorrect
2,relearn,13,822,A,36.517640338326075,73.38325635126127,1.825882016916304,1.1527014952480945,B,1016,Incorrect
2,relearn,13,823,B,64.34706423632142,84.46744279422914,3.217353211816071,1.3268114887493319,B,756,Correct
2,relearn,13,824,C,66.37943753150262,63.93214720234903,3.318971876575131,1.0042438198956047,C,1276,Correct
2,relearn,13,825,B,51.616875885223834,52.67614611162001,2.580843794261192,0.8274349682184398,C,2278,Incorrect
2,relearn,13,826,A,30.654321230753403,67.2164263343369,1.53271606153767,1.0558331558625615,C,689,Incorrect
2,relearn,13,827,D,73.57650449138772,16.190197816687434,3.678825224569386,0.25431503260535376,C,621,Incorrect
2,relearn,13,828,C,79.2925463683749,60.7818758712715,3.9646273184187453,0.9547594735429663,C,612,Correct
2,relearn,13,829,A,15.217053655530716,38.920007351654164,0.7608526827765358,0.6113540458680873,A,543,Correct
2,relearn,13,830,C,60.2054799484644,44.57541939141634,3.01027399742322,0.7001890504537879,C,556,Correct
2,relearn,13,831,B,35.66798048509795,80.35044613715354,1.7833990242548976,1.2621418564857196,A,400,Incorrect
2,relearn,13,832,B,64.7453071018336,59.35059310574783,3.23726535509168,0.9322769364360721,C,603,Incorrect
2,relearn,13,833,D,34.28931376820118,18.987306547179973,1.714465688410059,0.2982519138003899,C,551,Incorrect
2,relearn,13,834,D,52.85296181524452,46.46918530677263,2.642648090762226,0.7299362558902983,C,887,Incorrect
2,relearn,13,835,A,17.47932386958046,46.162293849429616,0.8739661934790228,0.7251156161511069,A,652,Correct
2,relearn,13,836,A,25.342565101871802,26.2184519411058,1.26712825509359,0.4118384800333752,D,854,Incorrect
2,relearn,13,837,C,73.26773527273033,43.197219561305836,3.6633867636365163,0.6785403381465186,C,646,Correct
2,relearn,13,838,A,-0.5004518891511935,41.88553882435676,-0.025022594457559676,0.6579365053112463,A,598,Correct
2,relearn,13,839,B,39.54964473921871,97.02057728934368,1.9774822369609353,1.5239956642962142,D,989,Incorrect
2,relearn,13,840,C,87.84088683603747,41.17733721945275,4.392044341801874,0.6468121005151117,C,685,Correct
2,relearn,13,841,C,77.62707916508641,27.44623202341828,3.8813539582543206,0.4311244044674589,C,591,Correct
2,relearn,13,842,B,59.570237512528,65.6151368079196,2.9785118756264,1.0306801588002472,B,986,Correct
2,relearn,13,843,B,52.28944108258476,97.58497074407701,2.6144720541292377,1.5328611359518358,D,591,Incorrect
2,relearn,13,844,D,60.18003019942613,8.938890173419747,3.0090015099713066,0.14041175850030732,D,637,Correct
2,relearn,13,845,C,63.12291762172783,49.699148091854276,3.156145881086392,0.7806723926752028,C,494,Correct
2,relearn,13,846,D,52.95477539931339,10.904413593350478,2.64773876996567,0.1712861281828727,D,957,Correct
2,relearn,13,847,B,39.67466593405953,97.14108131245658,1.9837332967029766,1.5258885370649118,B,685,Correct
2,relearn,13,848,A,42.72756154431533,55.6533596549061,2.1363780772157663,0.8742009291972179,A,1046,Correct
2,relearn,13,849,D,54.763344879141485,10.690759156060976,2.738167243957074,0.1679300521298949,D,683,Correct
2,relearn,13,850,B,62.762305586206786,52.1034205568308,3.1381152793103393,0.8184386162411953,C,695,Incorrect
2,relearn,13,851,C,67.12305765760314,63.336288681049396,3.356152882880157,0.9948840961301357,C,638,Correct
2,relearn,13,852,A,15.620318217581495,36.33347831892905,0.7810159108790748,0.5707249428305577,A,524,Correct
2,relearn,13,853,A,18.03323737729904,65.11191702994702,0.9016618688649521,1.0227756010121485,A,1262,Correct
2,relearn,13,854,D,35.165764917370964,26.399799974851437,1.758288245868548,0.41468708828616635,D,1503,Correct
2,relearn,13,855,D,32.61522047822903,14.248834330491015,1.6307610239114512,0.2238201662744431,D,590,Correct
2,relearn,13,856,B,65.40726019543273,95.83230918910411,3.2703630097716365,1.5053303926251753,B,610,Correct
2,relearn,13,857,B,47.00877200437575,53.53404082433515,2.3504386002187876,0.840910746853537,A,663,Incorrect
2,relearn,13,858,A,35.46938213921299,73.53611504425805,1.7734691069606496,1.155102593982875,B,1029,Incorrect
2,relearn,13,859,B,62.3072152547806,69.93771777028157,3.11536076273903,1.0985791017797644,C,1341,Incorrect
2,relearn,13,860,B,54.560582605162224,86.06386147064661,2.7280291302581112,1.3518879746787653,B,807,Correct
2,relearn,13,861,C,79.97606006306057,47.4540305517011,3.9988030031530286,0.7454061688222487,D,470,Incorrect
2,relearn,13,862,D,42.692582346527686,25.796140349526105,2.134629117326384,0.4052048250652122,D,845,Correct
2,relearn,13,863,D,55.983153347828484,19.89353587987689,2.7991576673914245,0.31248693087073093,D,1471,Correct
2,relearn,13,864,A,13.794030740377282,70.50794515024445,0.6897015370188642,1.1075362125186001,A,630,Correct
2,relearn,13,865,D,42.1978307957621,31.292741265506244,2.109891539788105,0.4915452303520029,D,1909,Correct
2,relearn,13,866,C,59.16778800343847,64.77491592514325,2.958389400171923,1.0174820000366327,C,804,Correct
2,relearn,13,867,D,52.644847186797,17.917520537334045,2.63224235933985,0.2814477544531644,D,848,Correct
2,relearn,13,868,C,73.96829691457188,54.72641676642183,3.698414845728594,0.8596405443534204,C,588,Correct
2,relearn,13,869,B,54.63245929153849,87.51813168643349,2.7316229645769243,1.3747315978100176,B,661,Correct
2,relearn,13,870,A,22.812447582643312,58.05076893916449,1.1406223791321657,0.9118593461725886,A,607,Correct
2,relearn,13,871,A,46.14704698223766,44.87203923686815,2.3073523491118832,0.7048483440906896,C,574,Incorrect
2,relearn,13,872,B,66.06979085237626,75.37719134182109,3.3034895426188133,1.1840221528384864,C,755,Incorrect
2,relearn,13,873,B,36.998314774622266,90.84805120336706,1.8499157387311131,1.4270378512672364,B,767,Correct
2,relearn,13,874,C,68.98931766012485,54.38295945085791,3.449465883006243,0.8542455294564342,B,710,Incorrect
2,relearn,13,875,C,89.19356147370749,57.87511288573547,4.4596780736853745,0.9091001473375325,C,517,Correct
2,relearn,13,876,A,10.991617212032224,47.23567356518253,0.5495808606016113,0.7419762252987152,A,542,Correct
2,relearn,13,877,B,61.97889067366962,70.4298415851214,3.098944533683481,1.1063093645865516,C,573,Incorrect
2,relearn,13,878,D,56.33694121974499,3.7855897868949278,2.8168470609872496,0.05946390532006828,D,1663,Correct
2,relearn,13,879,C,98.27755480097677,59.03336371856965,4.9138777400488385,0.9272939088747633,B,586,Incorrect
2,relearn,13,880,A,31.408966705713226,40.49398226999698,1.5704483352856613,0.6360779860700891,A,568,Correct
2,relearn,13,881,C,60.338890353513115,65.87891024502726,3.0169445176756557,1.034823502261395,C,493,Correct
2,relearn,13,882,B,69.40340622103005,71.22855005678579,3.4701703110515028,1.1188554479212556,C,499,Incorrect
2,relearn,13,883,C,56.31929190372804,40.591477587922284,2.8159645951864025,0.6376094389428569,C,382,Correct
2,relearn,13,884,D,57.105905000188045,5.15634924799398,2.8552952500094024,0.0809957445842057,D,821,Correct
2,relearn,13,885,C,55.36333443752656,56.6739820071801,2.768166721876328,0.8902328276171858,D,448,Incorrect
2,relearn,13,886,A,19.28050225731596,58.37885516735735,0.964025112865798,0.917012912593762,A,612,Correct
2,relearn,13,887,C,100.88305709198586,47.356713624861726,5.044152854599293,0.7438775181101062,C,445,Correct
2,relearn,13,888,A,45.09338927985873,44.38544994734026,2.2546694639929363,0.6972050174042083,A,1734,Correct
2,relearn,13,889,D,36.56347043675245,3.8718845426515394,1.8281735218376227,0.060819420173709754,D,587,Correct
2,relearn,13,890,C,65.21310821708906,48.84887079384221,3.2606554108544525,0.7673162681104584,B,726,Incorrect
2,relearn,13,891,B,25.649707342148808,74.3736202288981,1.2824853671074405,1.1682580946599175,A,549,Incorrect
2,relearn,13,892,D,51.24181571265977,23.542905999743326,2.562090785632989,0.3698111026647435,C,535,Incorrect
2,relearn,13,893,C,98.21430318561914,58.389327526460264,4.910715159280957,0.9171774120258793,C,622,Correct
2,relearn,13,894,B,38.58110975516121,62.61722288621057,1.9290554877580603,0.9835890370375691,C,495,Incorrect
2,relearn,13,895,B,64.36225978507613,80.02897560090938,3.218112989253807,1.2570922091106684,C,503,Incorrect
2,relearn,13,896,A,43.55343872399911,32.63085774034805,2.1776719361999555,0.5125643147870552,D,515,Incorrect
2,relearn,13,897,D,54.891727742114284,17.214486721982205,2.7445863871057146,0.2704045251054916,D,1318,Correct
2,relearn,13,898,B,56.162226237023425,56.264859070526114,2.8081113118511714,0.8838063395561494,C,755,Incorrect
