experiment,condition,subject,trial,cat,x,y,xt,yt,resp,rt,fb
2,new_learn,8,0,A,45.669213847737026,36.4945640286378,2.2834606923868512,0.5732552712416542,B,10382,Incorrect
2,new_learn,8,1,D,38.48809316138603,4.599753851270226,1.9244046580693015,0.07225276453735949,D,10934,Correct
2,new_learn,8,2,C,79.3108208358074,42.99231645789285,3.9655410417903703,0.6753217277246186,C,2525,Correct
2,new_learn,8,3,C,95.48621708443082,33.06211796735807,4.7743108542215404,0.519338534591856,C,1214,Correct
2,new_learn,8,4,C,58.66208376915199,53.89106452897365,2.9331041884575995,0.8465188620917857,C,2390,Correct
2,new_learn,8,5,C,76.59205303393145,32.54080671774324,3.8296026516965727,0.5111497966317377,C,791,Correct
2,new_learn,8,6,C,74.40776398745682,51.443553791007076,3.7203881993728407,0.808073453321896,C,717,Correct
2,new_learn,8,7,C,68.49444237661282,61.105765870009336,3.4247221188306414,0.9598471257459961,C,1061,Correct
2,new_learn,8,8,A,33.59655522462689,44.34558024135013,1.6798277612313444,0.6965787455270112,C,1892,Incorrect
2,new_learn,8,9,B,66.43421475811637,68.80579082876406,3.321710737905818,1.0807988349604056,C,2669,Incorrect
2,new_learn,8,10,A,18.735604129517434,39.99656797460352,0.9367802064758718,0.628264620589096,A,2807,Correct
2,new_learn,8,11,D,51.84959878172762,0.8519868568684075,2.5924799390863815,0.013382978252464237,C,2674,Incorrect
2,new_learn,8,12,A,49.26146132447661,42.891359132459456,2.4630730662238305,0.6737358937650806,C,11599,Incorrect
2,new_learn,8,13,C,65.66862319872467,33.05938320777425,3.283431159936234,0.5192955770887668,D,1174,Incorrect
2,new_learn,8,14,C,75.23435655007631,35.5557639141481,3.7617178275038157,0.5585086335273037,D,1099,Incorrect
2,new_learn,8,15,C,67.90178282856738,40.78710769770146,3.395089141428369,0.6406823895213729,B,1120,Incorrect
2,new_learn,8,16,C,97.86810858368816,45.47289110598661,4.893405429184408,0.7142865031802809,D,1171,Incorrect
2,new_learn,8,17,A,49.19459734726296,57.64883862391265,2.4597298673631482,0.9055458395443374,C,1060,Incorrect
2,new_learn,8,18,B,59.15967392059999,98.61908580775575,2.95798369603,1.5491049773869345,A,1111,Incorrect
2,new_learn,8,19,A,40.342246769300125,61.26987718512032,2.0171123384650063,0.9624249802556144,B,967,Incorrect
2,new_learn,8,20,B,45.6179328636202,51.95694062728337,2.2808966431810096,0.8161377148883725,B,906,Correct
2,new_learn,8,21,C,76.52852917884809,65.89166299946525,3.8264264589424046,1.0350238220596721,D,1456,Incorrect
2,new_learn,8,22,B,71.4173727507393,85.92284538369191,3.5708686375369654,1.349672899164691,A,1756,Incorrect
2,new_learn,8,23,D,25.51751687687962,34.048187114823726,1.275875843843981,0.5348276725399044,A,1118,Incorrect
2,new_learn,8,24,A,26.987986840031056,40.64584087970826,1.3493993420015529,0.6384633755333557,B,882,Incorrect
2,new_learn,8,25,B,49.65099315286012,87.93727528085294,2.482549657643006,1.3813154899951547,C,2518,Incorrect
2,new_learn,8,26,C,97.84149440592499,51.81196859990805,4.892074720296249,0.8138604996074809,B,3444,Incorrect
2,new_learn,8,27,C,62.23674993283494,28.151871360651764,3.111837496641747,0.44220856125714236,C,1095,Correct
2,new_learn,8,28,D,46.42787627603101,43.07927415477283,2.3213938138015506,0.6766876560330749,C,1164,Incorrect
2,new_learn,8,29,A,38.923692043710254,69.54993207399244,1.9461846021855127,1.092487778306619,B,1392,Incorrect
2,new_learn,8,30,B,55.636278679996146,73.1314142248257,2.7818139339998074,1.1487455683767227,C,603,Incorrect
2,new_learn,8,31,C,56.669175706173306,64.82080266668432,2.833458785308665,1.0182027872872457,C,991,Correct
2,new_learn,8,32,D,27.806574621847197,37.91882286103705,1.39032873109236,0.5956274766650335,A,1252,Incorrect
2,new_learn,8,33,D,26.132008833252225,14.100351290647994,1.3066004416626111,0.22148780013867553,D,1836,Correct
2,new_learn,8,34,D,38.68094052069743,20.212382914497162,1.9340470260348719,0.3174953683786407,D,1526,Correct
2,new_learn,8,35,D,41.814617343736884,43.61070319508258,2.090730867186844,0.6850353238777818,D,1247,Correct
2,new_learn,8,36,C,84.56665929577477,35.721064227170324,4.228332964788739,0.5611051647724372,D,3306,Incorrect
2,new_learn,8,37,B,42.06722216849416,53.697135027278605,2.1033611084247084,0.8434726246025881,C,1704,Incorrect
2,new_learn,8,38,B,61.16202951400966,59.41969755242927,3.0581014757004827,0.9333624265461961,B,1157,Correct
2,new_learn,8,39,B,58.72477909141905,64.33771810081842,2.936238954570953,1.010614512671311,B,1204,Correct
2,new_learn,8,40,D,36.28805354466161,31.2867261581117,1.8144026772330804,0.4914507452659967,C,1037,Incorrect
2,new_learn,8,41,A,2.693238567070839,63.43241208079485,0.13466192835354196,0.9963939989625277,A,2011,Correct
2,new_learn,8,42,A,31.405924795782582,41.25421206593369,1.5702962397891291,0.6480196477798635,A,2520,Correct
2,new_learn,8,43,B,58.26513163862862,76.82963631815772,2.913256581931431,1.2068371051754994,A,2229,Incorrect
2,new_learn,8,44,D,59.685531685942905,13.046198086495197,2.9842765842971453,0.20492920032905262,B,2397,Incorrect
2,new_learn,8,45,B,27.331771385964032,70.30403790602651,1.3665885692982016,1.104333245016356,C,3421,Incorrect
2,new_learn,8,46,C,77.96678315909752,26.792431049270785,3.898339157954876,0.4208545227810009,D,838,Incorrect
2,new_learn,8,47,D,51.855675044796726,3.7515517001714613,2.5927837522398365,0.05892923630410481,C,1717,Incorrect
2,new_learn,8,48,A,40.706962493381205,46.01321288815327,2.0353481246690603,0.7227738578874274,B,1077,Incorrect
2,new_learn,8,49,A,22.644488483099614,62.801537615062614,1.1322244241549808,0.9864842460281188,A,1990,Correct
2,new_learn,8,50,A,32.94247737130259,50.07674046734995,1.6471238685651293,0.7866035998397465,A,1430,Correct
2,new_learn,8,51,C,51.945931461975555,52.1317038315402,2.597296573098778,0.8188828888814277,A,763,Incorrect
2,new_learn,8,52,D,64.69207666334967,15.348239052691452,3.2346038331674833,0.24108957526737715,B,1597,Incorrect
2,new_learn,8,53,B,36.60448951040237,94.08620460083931,1.8302244755201185,1.4779026458907145,A,1623,Incorrect
2,new_learn,8,54,D,49.28014712133545,22.056851871227565,2.4640073560667726,0.346468218999834,C,1323,Incorrect
2,new_learn,8,55,C,56.028412212339,42.14295110770575,2.80142061061695,0.661979928002811,C,3048,Correct
2,new_learn,8,56,D,66.5028586396126,8.220710086097618,3.32514293198063,0.12913061206887896,C,1693,Incorrect
2,new_learn,8,57,A,21.802530557006392,71.41001390877398,1.0901265278503196,1.1217058754427465,A,925,Correct
2,new_learn,8,58,B,48.933720440705606,77.24658976495489,2.4466860220352804,1.213386594602234,C,4076,Incorrect
2,new_learn,8,59,C,58.35792339515709,58.49347267390448,2.9178961697578543,0.9188133201764681,B,1255,Incorrect
2,new_learn,8,60,D,46.668998850073194,42.474053953227084,2.33344994250366,0.6671808793381736,D,829,Correct
2,new_learn,8,61,B,45.55064556224431,49.644970479466096,2.277532278112216,0.7798213727298642,D,950,Incorrect
2,new_learn,8,62,B,50.742397869791176,94.42127551041172,2.537119893489559,1.4831659274304365,C,1646,Incorrect
2,new_learn,8,63,A,17.27564470044064,63.11104682025078,0.863782235022032,0.9913460052543065,A,476,Correct
2,new_learn,8,64,B,41.49646300794621,64.40425745233594,2.0748231503973105,1.0116597103608214,B,1199,Correct
2,new_learn,8,65,C,63.96278187857784,61.70061360854923,3.1981390939288925,0.9691909721730035,C,1502,Correct
2,new_learn,8,66,D,28.95267187208487,13.104619149837598,1.4476335936042435,0.20584687624610962,A,1022,Incorrect
2,new_learn,8,67,A,32.994240973839005,58.9937074999914,1.64971204869195,0.9266709904499905,B,766,Incorrect
2,new_learn,8,68,A,25.055129045631052,63.117499761081135,1.2527564522815526,0.9914473678118401,C,1197,Incorrect
2,new_learn,8,69,D,33.47222978952104,13.980825255292814,1.6736114894760519,0.2196102895657527,A,1621,Incorrect
2,new_learn,8,70,D,27.90472411585653,19.376833349043075,1.3952362057928267,0.3043705864959372,C,3448,Incorrect
2,new_learn,8,71,B,34.95225955018518,76.96426530535312,1.747612977509259,1.2089518523611658,B,1157,Correct
2,new_learn,8,72,D,24.89018032681954,29.827429607526355,1.244509016340977,0.46852816865235747,B,900,Incorrect
2,new_learn,8,73,B,62.400964737311796,62.84782889946804,3.12004823686559,0.9872113878231854,D,1455,Incorrect
2,new_learn,8,74,A,38.348568498376714,52.22587174897582,1.9174284249188358,0.8203620750695257,C,925,Incorrect
2,new_learn,8,75,B,37.20274971719471,52.492444086153164,1.8601374858597355,0.8245493835501589,C,1069,Incorrect
2,new_learn,8,76,A,29.779454751447396,30.205456880060257,1.4889727375723698,0.47446620716360294,B,1005,Incorrect
2,new_learn,8,77,D,43.703636974308104,49.675840032815344,2.185181848715405,0.7803062705399721,C,1029,Incorrect
2,new_learn,8,78,B,61.33592914688852,52.7429647847125,3.066796457344426,0.8284845534809899,D,1431,Incorrect
2,new_learn,8,79,B,54.81800213644079,73.94400631978226,2.7409001068220396,1.1615097351561259,C,563,Incorrect
2,new_learn,8,80,B,73.68919923360154,80.21081420408572,3.684459961680077,1.2599485232100576,D,1374,Incorrect
2,new_learn,8,81,C,58.5970667045559,57.73271972257811,2.9298533352277953,0.9068634407610496,B,678,Incorrect
2,new_learn,8,82,B,47.54753658701049,84.4944153107355,2.3773768293505246,1.327235172047858,B,1350,Correct
2,new_learn,8,83,A,26.664200039200722,56.06230095638606,1.3332100019600361,0.8806245641396125,A,876,Correct
2,new_learn,8,84,B,32.98992872669106,87.98091499839087,1.649496436334553,1.382000981075264,A,1215,Incorrect
2,new_learn,8,85,C,81.09750832847362,39.36319282254678,4.054875416423681,0.6183155869657572,C,2130,Correct
2,new_learn,8,86,A,36.312986960645986,61.40950156613832,1.8156493480322993,0.9646181949039552,C,2061,Incorrect
2,new_learn,8,87,C,83.45671109039624,29.733129933285195,4.172835554519812,0.4670469128331978,C,1808,Correct
2,new_learn,8,88,D,37.75478839878027,42.834875838064804,1.8877394199390136,0.6728486562514766,B,1940,Incorrect
2,new_learn,8,89,B,38.85104040711724,59.62454854987937,1.942552020355862,0.936580218489545,C,1263,Incorrect
2,new_learn,8,90,D,58.47801356068286,0.8052246506404188,2.9239006780341428,0.012648439234706738,C,1230,Incorrect
2,new_learn,8,91,A,10.338870894124414,53.22829041291742,0.5169435447062206,0.8361080306218268,A,586,Correct
2,new_learn,8,92,D,40.9264829526819,15.719165409419965,2.046324147634095,0.24691607285398273,B,2304,Incorrect
2,new_learn,8,93,D,36.65577638043325,18.21245981582938,1.8327888190216626,0.28608064980604453,C,917,Incorrect
2,new_learn,8,94,B,48.63744818358296,100.76657730615821,2.431872409179148,1.582837694962073,D,1397,Incorrect
2,new_learn,8,95,D,35.101528330070536,34.25405931669235,1.7550764165035269,0.5380615055247484,B,1189,Incorrect
2,new_learn,8,96,D,43.30253893884791,43.09607454188905,2.1651269469423955,0.6769515558967838,C,1051,Incorrect
2,new_learn,8,97,C,92.22903551510842,53.19865002408973,4.611451775755421,0.8356424404828738,D,1312,Incorrect
2,new_learn,8,98,C,85.17551936433141,54.99289819041833,4.258775968216571,0.8638264247731483,B,941,Incorrect
2,new_learn,8,99,B,69.64578335163081,87.59732045632116,3.482289167581541,1.3759754920986471,C,1420,Incorrect
2,new_learn,8,100,A,16.376098395269388,70.15629818167072,0.8188049197634695,1.1020125548529585,A,640,Correct
2,new_learn,8,101,A,6.476167805151913,61.79537844381699,0.3238083902575957,0.9706795347244828,A,620,Correct
2,new_learn,8,102,A,25.68321317938687,49.51272585756164,1.2841606589693435,0.7777440790666051,A,1086,Correct
2,new_learn,8,103,D,51.42508441891051,39.80004782706837,2.5712542209455256,0.625177689330202,A,1189,Incorrect
2,new_learn,8,104,C,74.06260054258014,47.44081471359327,3.703130027129007,0.7451985749226959,C,1725,Correct
2,new_learn,8,105,B,66.16673847735109,61.967508343698306,3.3083369238675546,0.9733833448691341,C,1077,Incorrect
2,new_learn,8,106,A,12.247606087886059,62.81538142858429,0.6123803043943029,0.9867017041424057,A,660,Correct
2,new_learn,8,107,C,64.23336028035737,26.744364301017846,3.2116680140178686,0.42009949206503394,C,1077,Correct
2,new_learn,8,108,D,27.56533228014188,22.67747176654769,1.378266614007094,0.35621689351888086,B,1342,Incorrect
2,new_learn,8,109,C,85.54167678211587,59.569442323349406,4.277083839105794,0.935714611907377,C,2250,Correct
2,new_learn,8,110,D,31.06668323618941,39.21772116622273,1.5533341618094705,0.6160305235316913,B,1192,Incorrect
2,new_learn,8,111,A,21.98663483566529,68.58945189979227,1.0993317417832644,1.0774005910106892,A,732,Correct
2,new_learn,8,112,B,52.978504747222416,83.94027401596054,2.6489252373611207,1.318530740944279,C,1677,Incorrect
2,new_learn,8,113,C,69.01084208839089,64.7132025575542,3.450542104419544,1.0165126087254024,C,1028,Correct
2,new_learn,8,114,A,20.42190561033315,56.41234716590901,1.0210952805166575,0.8861230771408837,A,864,Correct
2,new_learn,8,115,C,74.4082861499478,68.03306517107211,3.72041430749739,1.068660888713179,C,590,Correct
2,new_learn,8,116,A,49.352752035798936,44.16904881305161,2.467637601789947,0.6938057963356596,A,830,Correct
2,new_learn,8,117,B,34.32918584223045,90.62950256763811,1.7164592921115227,1.4236048973249458,C,980,Incorrect
2,new_learn,8,118,A,40.96084517502321,35.942329063964706,2.0480422587511606,0.5645807847012921,A,718,Correct
2,new_learn,8,119,A,17.218385695876908,53.00889269474125,0.8609192847938454,0.8326617393236437,A,558,Correct
2,new_learn,8,120,C,54.09019239538547,64.523446748287,2.704509619769274,1.0135319314435534,A,1511,Incorrect
2,new_learn,8,121,A,34.174985495675216,27.640656144956484,1.708749274783761,0.43417841142698427,A,1269,Correct
2,new_learn,8,122,A,26.00558405910094,41.78197672023561,1.3002792029550472,0.6563097555837597,A,1382,Correct
2,new_learn,8,123,B,46.19728325278816,82.20220923274496,2.3098641626394083,1.2912292831722132,B,933,Correct
2,new_learn,8,124,A,7.3638723712985055,55.47741300921058,0.3681936185649253,0.8714371657495139,A,718,Correct
2,new_learn,8,125,D,68.79293616242015,40.261860454631965,3.439646808121007,0.6324318251206459,B,952,Incorrect
2,new_learn,8,126,D,39.229768499141784,17.21858170189224,1.9614884249570892,0.2704688488995015,A,997,Incorrect
2,new_learn,8,127,C,88.6718104020859,43.013170957645286,4.433590520104294,0.6756493094407015,B,1375,Incorrect
2,new_learn,8,128,D,65.23439084178591,33.85672582695005,3.2617195420892955,0.5318202056627503,A,930,Incorrect
2,new_learn,8,129,B,28.618990390803702,64.81743058017038,1.4309495195401851,1.0181498186761482,A,661,Incorrect
2,new_learn,8,130,B,33.56793039575735,74.2110220430419,1.6783965197878674,1.165704008329053,C,997,Incorrect
2,new_learn,8,131,A,17.745950708771957,64.10193638898646,0.8872975354385979,1.0069108622026004,A,784,Correct
2,new_learn,8,132,A,4.901834478332166,57.100371657324104,0.2450917239166083,0.8969305405794813,A,622,Correct
2,new_learn,8,133,B,67.10925998317003,74.24163989734528,3.355462999158502,1.1661849524597943,A,1532,Incorrect
2,new_learn,8,134,D,59.40780510382396,17.926604396673525,2.9703902551911985,0.2815904433820001,C,1118,Incorrect
2,new_learn,8,135,C,92.3448281200095,48.11763116363417,4.617241406000475,0.7558299828590819,D,709,Incorrect
2,new_learn,8,136,A,26.918017983288205,38.20931843998147,1.3459008991644104,0.600190570548594,B,985,Incorrect
2,new_learn,8,137,A,25.801698575737657,36.45432262495153,1.290084928786883,0.5726231607506995,A,444,Correct
2,new_learn,8,138,A,36.84069270496087,58.68620790935698,1.8420346352480437,0.9218407981753954,A,790,Correct
2,new_learn,8,139,B,59.49834333640846,94.5010262360809,2.974917166820423,1.4844186488998405,B,1253,Correct
2,new_learn,8,140,D,62.44537316386568,21.439509791260473,3.122268658193284,0.33677103228395167,B,1278,Incorrect
2,new_learn,8,141,A,31.61627211328795,53.6018035412372,1.5808136056643973,0.8419751611215708,A,803,Correct
2,new_learn,8,142,C,89.31981857457426,38.257451882668576,4.465990928728712,0.600946648898283,C,3814,Correct
2,new_learn,8,143,A,37.42221378235524,58.85406208331172,1.8711106891177622,0.9244774453742485,C,1798,Incorrect
2,new_learn,8,144,B,42.72001306202446,95.17423711764984,2.136000653101223,1.494993420699109,B,1061,Correct
2,new_learn,8,145,D,59.8936340592343,41.36124108613251,2.994681702961715,0.6497008556977509,C,1894,Incorrect
2,new_learn,8,146,D,58.78925140164699,50.247608856344094,2.9394625700823496,0.78928759421772,B,2667,Incorrect
2,new_learn,8,147,C,75.6225256503318,25.95663905092837,3.7811262825165897,0.4077259327713925,C,1021,Correct
2,new_learn,8,148,A,33.34993261670116,40.230748539947044,1.6674966308350578,0.6319431203075797,C,1446,Incorrect
2,new_learn,8,149,A,15.176794688874226,50.6954313603689,0.7588397344437113,0.7963219736615028,A,557,Correct
2,new_learn,8,150,D,73.99180180583505,30.082944850260184,3.6995900902917525,0.4725417926996215,C,1526,Incorrect
2,new_learn,8,151,D,32.68813496932523,35.81194061585829,1.6344067484662617,0.5625326477478716,A,741,Incorrect
2,new_learn,8,152,B,52.305359307823316,49.476810415737376,2.6152679653911655,0.7771799206256774,B,1340,Correct
2,new_learn,8,153,B,74.22772784660201,82.3218119822728,3.7113863923301005,1.293107998768542,C,1678,Incorrect
2,new_learn,8,154,D,53.132979358241776,27.63133778483227,2.656648967912089,0.4340320389684356,B,1477,Incorrect
2,new_learn,8,155,C,72.66751627737163,39.24473071314378,3.633375813868582,0.616454788502611,C,1031,Correct
2,new_learn,8,156,A,17.09943696444558,25.04956551602806,0.8549718482222789,0.39347765500384985,A,644,Correct
2,new_learn,8,157,B,54.24848476028595,52.595678247646305,2.712424238014297,0.8261709819668905,C,1213,Incorrect
2,new_learn,8,158,B,53.910910110362,73.38129575526554,2.6955455055181,1.1526706982782104,B,1150,Correct
2,new_learn,8,159,D,56.14027948799599,40.17732095713714,2.8070139743997995,0.6311038817993064,B,862,Incorrect
2,new_learn,8,160,A,11.442097241180583,67.14379299352015,0.5721048620590292,1.0546922340129836,A,723,Correct
2,new_learn,8,161,B,48.19338525333848,67.39961848065481,2.409669262666924,1.0587107313679,A,1399,Incorrect
2,new_learn,8,162,D,60.128583320097185,6.532432635650778,3.0064291660048594,0.10261121189115346,B,1221,Incorrect
2,new_learn,8,163,A,14.926048052805957,41.637434097651074,0.7463024026402978,0.6540392853775489,A,687,Correct
2,new_learn,8,164,C,86.01392790897012,47.18171736687274,4.300696395448506,0.7411286833175867,C,1173,Correct
2,new_learn,8,165,A,3.228396723336612,37.09270063787466,0.1614198361668306,0.5826507791287623,A,710,Correct
2,new_learn,8,166,B,61.63092535679369,63.897013900939186,3.0815462678396845,1.0036919472875772,D,2663,Incorrect
2,new_learn,8,167,C,58.66112549098756,52.12150245528144,2.933056274549378,0.8187226460378726,B,862,Incorrect
2,new_learn,8,168,B,66.79288224785303,59.92753203589511,3.3396441123926515,0.9413394719586754,C,555,Incorrect
2,new_learn,8,169,B,53.19162698777528,62.641578786717936,2.6595813493887643,0.9839716186280963,A,527,Incorrect
2,new_learn,8,170,D,74.95714069733177,15.608620598856461,3.747857034866588,0.2451796390301889,B,1364,Incorrect
2,new_learn,8,171,B,62.89223948796716,71.22744733151718,3.1446119743983583,1.1188381263532414,C,641,Incorrect
2,new_learn,8,172,B,31.760671774633888,82.21345087084607,1.5880335887316943,1.291405866410577,A,905,Incorrect
2,new_learn,8,173,D,28.749559235667896,14.315613673975934,1.4374779617833948,0.22486913374896192,A,872,Incorrect
2,new_learn,8,174,C,87.09573893381695,29.38252500805842,4.354786946690847,0.46153962354617356,D,967,Incorrect
2,new_learn,8,175,D,62.655011738348676,8.80697373757057,3.1327505869174335,0.1383396199715497,C,797,Incorrect
2,new_learn,8,176,B,48.8673667255127,96.02747099185326,2.4433683362756353,1.5083959870540662,B,1725,Correct
2,new_learn,8,177,D,30.27126179883614,14.094954095744818,1.5135630899418069,0.22140302119938646,C,1515,Incorrect
2,new_learn,8,178,A,48.75010552733833,57.85511075761886,2.4375052763669163,0.9087859546437961,B,1702,Incorrect
2,new_learn,8,179,A,35.60835890250363,63.28655501122601,1.7804179451251816,0.9941028814713697,B,1494,Incorrect
2,new_learn,8,180,A,2.7000441191480498,48.25368037447462,0.13500220595740248,0.7579670388655972,A,691,Correct
2,new_learn,8,181,D,55.716038134782295,40.4599746502535,2.785801906739115,0.6355437956283282,C,1760,Incorrect
2,new_learn,8,182,A,25.19143990059739,44.9615949669698,1.2595719950298696,0.7062550822095606,A,922,Correct
2,new_learn,8,183,A,30.63656496043825,47.77983640313263,1.5318282480219125,0.7505239151690181,A,744,Correct
2,new_learn,8,184,A,5.7959595451556005,40.110314019943516,0.28979797725778,0.6300513392911712,A,638,Correct
2,new_learn,8,185,C,57.46962935939746,33.88453801700233,2.873481467969873,0.5322570785224928,D,1259,Incorrect
2,new_learn,8,186,B,48.611619725145445,84.86966611806656,2.4305809862572723,1.3331295979456825,B,1175,Correct
2,new_learn,8,187,C,90.64237516246915,69.67129528156823,4.532118758123457,1.0943941471132999,C,2686,Correct
2,new_learn,8,188,D,57.40439274682073,50.76778018682705,2.870219637341037,0.7974584263699868,C,1092,Incorrect
2,new_learn,8,189,A,28.148987854045973,43.80559844009517,1.4074493927022989,0.6880967312275373,C,1374,Incorrect
2,new_learn,8,190,B,59.47333446936479,87.99177017297822,2.9736667234682392,1.3821714937589493,D,846,Incorrect
2,new_learn,8,191,C,57.33974944094979,64.92725162700253,2.8669874720474895,1.0198748836458356,B,773,Incorrect
2,new_learn,8,192,C,51.741897938351414,53.55398577705235,2.587094896917571,0.8412240414381996,C,583,Correct
2,new_learn,8,193,B,45.58708824114961,72.15258009066991,2.2793544120574807,1.1333700777519888,C,740,Incorrect
2,new_learn,8,194,B,29.449986564930775,89.26828455671394,1.4724993282465388,1.4022229348096784,B,1079,Correct
2,new_learn,8,195,D,64.60153316410712,14.929052050223362,3.2300766582053564,0.2345050012302068,C,1045,Incorrect
2,new_learn,8,196,D,69.47295356390347,31.002598129030854,3.473647678195174,0.48698767262180004,D,903,Correct
2,new_learn,8,197,C,53.68220393736371,38.966409591692695,2.6841101968681857,0.6120829305501632,D,1102,Incorrect
2,new_learn,8,198,D,59.57415059244139,24.226886289863792,2.9787075296220693,0.38055503993795686,C,1101,Incorrect
2,new_learn,8,199,B,56.16940117525081,74.47642082522125,2.8084700587625404,1.1698728826508848,C,1408,Incorrect
2,new_learn,8,200,D,32.11570432799833,21.251620508980913,1.6057852163999167,0.3338196743394631,A,1538,Incorrect
2,new_learn,8,201,A,36.89972095354319,33.98799336629215,1.8449860476771593,0.5338821513490102,B,870,Incorrect
2,new_learn,8,202,C,69.41179566744258,52.48214412914717,3.4705897833721284,0.8243875922038472,C,1199,Correct
2,new_learn,8,203,D,53.86986231122541,29.04336368150211,2.693493115561271,0.45621208988671824,C,1122,Incorrect
2,new_learn,8,204,C,98.31376862818416,62.96702913086898,4.915688431409208,0.9890837806795625,D,1768,Incorrect
2,new_learn,8,205,C,88.8481286617783,62.140618742173274,4.442406433088916,0.976102556649679,A,676,Incorrect
2,new_learn,8,206,D,36.3836547164025,36.27899414379737,1.8191827358201251,0.5698691074089046,A,686,Incorrect
2,new_learn,8,207,C,73.83288645246654,30.956983303696557,3.691644322623327,0.486271156620975,C,1166,Correct
2,new_learn,8,208,C,60.83980623553287,56.920085346201894,3.0419903117766434,0.8940986098266595,C,1364,Correct
2,new_learn,8,209,C,54.97933826341324,61.5424260864718,2.748966913170662,0.9667061683867633,C,1248,Correct
2,new_learn,8,210,B,57.45884939388473,75.16429397738881,2.872942469694236,1.1806779688581412,B,2148,Correct
2,new_learn,8,211,A,9.794483154941487,48.19989541326098,0.48972415774707434,0.7571221866704854,A,669,Correct
2,new_learn,8,212,B,51.17052333648367,93.61764108460133,2.5585261668241834,1.4705424673889478,B,3653,Correct
2,new_learn,8,213,B,54.43557373572367,60.3607139367759,2.721778686786184,0.9481438773460511,B,949,Correct
2,new_learn,8,214,D,53.801317127358075,12.940907256685252,2.6900658563679034,0.20327529584194615,B,860,Incorrect
2,new_learn,8,215,C,60.460783039063756,63.300877270345886,3.0230391519531876,0.9943278549915386,C,1071,Correct
2,new_learn,8,216,B,44.04603888066294,65.00991717047563,2.202301944033147,1.021173390966236,C,1292,Incorrect
2,new_learn,8,217,C,48.5803973459831,52.87733018524621,2.429019867299155,0.8305951602570565,C,1192,Correct
2,new_learn,8,218,A,46.82434621836965,51.66252176284913,2.3412173109184824,0.8115129941804483,C,693,Incorrect
2,new_learn,8,219,A,18.418001047352895,48.530014735683395,0.9209000523676448,0.7623076888611369,A,639,Correct
2,new_learn,8,220,A,29.4546957225996,68.24025071101232,1.47273478612998,1.07191535156421,A,613,Correct
2,new_learn,8,221,C,82.7455381476275,26.28061864095527,4.137276907381374,0.4128149922711003,A,1740,Incorrect
2,new_learn,8,222,D,48.677935145675775,36.843582377572886,2.433896757283789,0.5787376386465668,C,958,Incorrect
2,new_learn,8,223,A,8.561503008365694,42.52417750582286,0.42807515041828464,0.6679682182612072,A,683,Correct
2,new_learn,8,224,C,84.81973469509299,58.53756538019477,4.2409867347546495,0.9195059267872605,C,977,Correct
2,new_learn,8,225,D,41.48923077707633,46.786176841569656,2.0744615388538166,0.7349155472751407,C,1758,Incorrect
2,new_learn,8,226,B,61.50918805722617,58.2333642291742,3.0754594028613087,0.9147275462809615,D,2268,Incorrect
2,new_learn,8,227,A,16.140259938241407,29.77397053965614,0.8070129969120703,0.4676884355779134,A,789,Correct
2,new_learn,8,228,C,86.82114029841917,71.73381461288149,4.341057014920958,1.1267921250090032,C,2351,Correct
2,new_learn,8,229,D,30.347943112798813,33.72714582540727,1.5173971556399406,0.5297847677582557,B,1629,Incorrect
2,new_learn,8,230,A,7.568416408576894,60.508384334367676,0.37842082042884473,0.9504634785271862,A,800,Correct
2,new_learn,8,231,D,31.29521447214245,36.25632456013418,1.5647607236071226,0.5695130144214237,C,1615,Incorrect
2,new_learn,8,232,D,40.50320348729562,35.264211155704615,2.025160174364781,0.5539289335070042,C,581,Incorrect
2,new_learn,8,233,B,40.844499271044874,60.26101442471681,2.042224963552244,0.9465778010727945,C,1029,Incorrect
2,new_learn,8,234,B,39.303690771612686,70.78334840192433,1.9651845385806341,1.1118622366798616,D,469,Incorrect
2,new_learn,8,235,D,31.457263783909788,24.161908697259747,1.5728631891954894,0.37953437430009274,B,916,Incorrect
2,new_learn,8,236,A,4.768214983238391,42.17632096280652,0.23841074916191954,0.6625041004609908,A,678,Correct
2,new_learn,8,237,A,16.906702084886653,57.3908409110013,0.8453351042443328,0.9014932209467111,A,1061,Correct
2,new_learn,8,238,A,38.09516612639697,70.0155880316324,1.9047583063198485,1.099802284984729,C,2063,Incorrect
2,new_learn,8,239,C,58.106790568915116,35.08343803687502,2.905339528445756,0.5510893559965965,C,1339,Correct
2,new_learn,8,240,C,48.68855142108423,52.42027876312412,2.4344275710542114,0.8234158133067988,C,1088,Correct
2,new_learn,8,241,C,52.5484018919,58.07349305471033,2.6274200945949997,0.9122162957448792,D,2107,Incorrect
2,new_learn,8,242,A,30.078000999465978,24.045727352509008,1.503900049973299,0.3777094020043272,D,1317,Incorrect
2,new_learn,8,243,C,54.68662521752308,64.81354943966775,2.734331260876154,1.0180888538636952,C,1191,Correct
2,new_learn,8,244,B,66.14278677318025,64.46958555953216,3.3071393386590127,1.0126858818690243,D,1182,Incorrect
2,new_learn,8,245,C,84.84750734605147,70.37784327324876,4.242375367302574,1.1054925770136608,B,1214,Incorrect
2,new_learn,8,246,C,88.9548922617808,59.433982863846104,4.44774461308904,0.9335868196932029,C,1685,Correct
2,new_learn,8,247,D,57.68351871770918,25.757203338838007,2.8841759358854584,0.4045932039315599,C,1037,Incorrect
2,new_learn,8,248,C,90.83184168302374,55.8424336319085,4.541592084151187,0.8771708962828966,C,798,Correct
2,new_learn,8,249,D,54.5386791392292,39.07839195170857,2.72693395696146,0.6138419453479507,D,973,Correct
2,new_learn,8,250,C,96.4359243648783,55.23008489254937,4.821796218243915,0.8675521447778686,C,708,Correct
2,new_learn,8,251,D,34.73195061640597,12.889670856297384,1.7365975308202986,0.20247047634667162,D,1132,Correct
2,new_learn,8,252,B,44.679787093173815,97.30058187275412,2.2339893546586906,1.5283939660072825,B,1542,Correct
2,new_learn,8,253,B,54.96128145732468,71.57824945886182,2.748064072866234,1.1243485132838895,C,1423,Incorrect
2,new_learn,8,254,C,95.96847495520248,49.837536074074485,4.798423747760125,0.7828461860166434,C,946,Correct
2,new_learn,8,255,B,63.7372258529073,82.54583378932138,3.1868612926453648,1.2966269250848808,C,1224,Incorrect
2,new_learn,8,256,A,19.630463976450596,45.793704335702074,0.9815231988225298,0.7193258256085235,A,788,Correct
2,new_learn,8,257,C,65.44443820665411,70.47887451501424,3.2722219103327057,1.1070795720482283,B,1382,Incorrect
2,new_learn,8,258,B,44.55967819328205,88.11388001760527,2.2279839096641028,1.384089590713006,D,959,Incorrect
2,new_learn,8,259,C,94.62714501568851,64.13651954887727,4.731357250784425,1.007454093207855,D,1021,Incorrect
2,new_learn,8,260,B,61.00948360851127,53.19904360593211,3.0504741804255633,0.8356486228519969,C,1172,Incorrect
2,new_learn,8,261,B,51.14434222557511,76.7384979284003,2.5572171112787556,1.2054055066968898,B,1701,Correct
2,new_learn,8,262,C,71.09666043513569,30.173589679589046,3.5548330217567843,0.47396563834914873,C,1958,Correct
2,new_learn,8,263,C,71.64376027695916,29.891084539564368,3.582188013847958,0.4695280579866343,C,845,Correct
2,new_learn,8,264,C,74.54522220915787,59.177021429929866,3.727261110457894,0.929550478927967,C,1206,Correct
2,new_learn,8,265,B,59.85474415778765,78.54322978268664,2.9927372078893826,1.2337541683725168,B,1615,Correct
2,new_learn,8,266,A,15.104261138561998,40.84225484630002,0.7552130569280999,0.6415486389058913,A,797,Correct
2,new_learn,8,267,A,27.19122203896772,34.716100501694626,1.359561101948386,0.5453192314870439,A,1436,Correct
2,new_learn,8,268,D,62.7124325831856,1.7653506456161097,3.13562162915928,0.02773006309638784,B,1390,Incorrect
2,new_learn,8,269,A,26.261123938618667,43.5407905121683,1.3130561969309331,0.6839371380226005,A,708,Correct
2,new_learn,8,270,A,18.489040249870623,46.18641179414537,0.9244520124935312,0.7254944599408003,A,751,Correct
2,new_learn,8,271,B,63.70399687998897,53.05059421151708,3.1851998439994484,0.8333167852173763,C,2637,Incorrect
2,new_learn,8,272,B,70.71111844331594,70.8027440120732,3.535555922165797,1.1121669022116394,D,1069,Incorrect
2,new_learn,8,273,C,79.0228067806004,33.57544158406887,3.95114033903002,0.52740180310772,D,2207,Incorrect
2,new_learn,8,274,B,48.68794234398088,99.73131386208246,2.434397117199044,1.566575814809881,B,749,Correct
2,new_learn,8,275,B,62.85651811373716,94.1744567616509,3.142825905686858,1.4792889075910605,B,574,Correct
2,new_learn,8,276,D,33.92970606563138,41.866445943087314,1.6964853032815688,0.6576365950335865,A,1268,Incorrect
2,new_learn,8,277,B,44.18868531991747,49.59372656922035,2.2094342659958732,0.779016435270018,D,2854,Incorrect
2,new_learn,8,278,C,57.6229739420116,63.19012709710411,2.8811486971005795,0.992588195338338,C,613,Correct
2,new_learn,8,279,D,64.85037646767408,41.96518162060873,3.2425188233837043,0.659187531429329,C,733,Incorrect
2,new_learn,8,280,D,26.664952642001033,31.807436218565357,1.3332476321000515,0.4996300397688542,A,838,Incorrect
2,new_learn,8,281,A,18.433689268394613,56.93267328175838,0.9216844634197306,0.8942963406560002,A,861,Correct
2,new_learn,8,282,A,18.295896081326102,60.762486946693045,0.9147948040663052,0.9544549130278829,A,902,Correct
2,new_learn,8,283,A,30.470171815252023,30.45742113691165,1.5235085907626011,0.47842405245506064,B,1588,Incorrect
2,new_learn,8,284,D,48.591999705144254,14.224038251336673,2.4295999852572128,0.22343067037389747,C,976,Incorrect
2,new_learn,8,285,C,79.38674524531936,27.325457295220197,3.9693372622659684,0.4292272794732269,C,1509,Correct
2,new_learn,8,286,A,27.090882270588267,76.11999561428576,1.3545441135294134,1.195690095065637,B,1499,Incorrect
2,new_learn,8,287,A,25.70079375232448,39.57518381064281,1.2850396876162238,0.6216455336199058,B,1182,Incorrect
2,new_learn,8,288,A,36.00089835101575,71.80005297388995,1.8000449175507873,1.1278325947506533,B,1263,Incorrect
2,new_learn,8,289,D,56.95857185783069,26.802452426532014,2.8479285928915345,0.4210119382069145,C,1429,Incorrect
2,new_learn,8,290,B,68.06785030026631,77.70737344341723,3.4033925150133153,1.2206245676979905,C,1509,Incorrect
2,new_learn,8,291,D,43.548021959903735,48.36464587610408,2.1774010979951868,0.7597100808892023,C,1779,Incorrect
2,new_learn,8,292,C,71.84715215777766,56.33556098032582,3.592357607888883,0.8849169225582569,C,1377,Correct
2,new_learn,8,293,B,63.60084648938137,83.25310142288106,3.1800423244690683,1.3077366590934456,B,1244,Correct
2,new_learn,8,294,A,19.927655044453275,61.37220257090762,0.9963827522226637,0.96403230365694,A,887,Correct
2,new_learn,8,295,B,35.03697700431887,64.36667348842496,1.7518488502159437,1.0110693428362438,A,1341,Incorrect
2,new_learn,8,296,A,15.99171653943352,41.686639115620146,0.799585826971676,0.6548121959924058,A,660,Correct
2,new_learn,8,297,A,17.65736701920181,41.57993984007431,0.8828683509600905,0.653136167691415,A,704,Correct
2,new_learn,8,298,D,36.76244985765452,17.42326612844049,1.838122492882726,0.27368402435324257,C,1931,Incorrect
2,new_learn,8,299,B,43.66038057834727,83.64268741099797,2.1830190289173634,1.3138562614844933,C,1431,Incorrect
2,new_learn,8,300,C,56.05782456953741,34.29754229022212,2.8028912284768706,0.5387445344757353,D,1052,Incorrect
2,new_learn,8,301,B,26.819960335345986,84.36220441639773,1.3409980167672992,1.3251584081759775,B,1005,Incorrect
2,new_learn,8,302,D,72.8592083195662,32.37070957046176,3.6429604159783104,0.5084779168902575,C,1150,Incorrect
2,new_learn,8,303,A,18.643018155389477,46.78031862470092,0.932150907769474,0.7348235266197509,A,1047,Incorrect
2,new_learn,8,304,D,58.80156589514711,23.665054359028503,2.9400782947573556,0.3717298046056353,C,1191,Incorrect
2,new_learn,8,305,A,17.001458907336904,71.02264091313884,0.8500729453668453,1.1156210346563145,A,716,Incorrect
2,new_learn,8,306,C,82.62136210000611,34.89555130553224,4.131068105000305,0.5481380381221289,B,1821,Incorrect
2,new_learn,8,307,C,55.250632176533294,66.24259900329447,2.7625316088266647,1.0405363119172224,C,1342,Incorrect
2,new_learn,8,308,C,61.2270290661271,49.01158870175356,3.0613514533063553,0.7698722350309674,C,1724,Incorrect
2,new_learn,8,309,B,45.77528685889862,89.95644615366515,2.288764342944931,1.4130325518970013,B,1158,Incorrect
2,new_learn,8,310,A,27.441627318853104,37.33565691412582,1.3720813659426552,0.5864671273918333,B,1415,Incorrect
2,new_learn,8,311,C,58.58975150821101,65.47851045299788,2.9294875754105503,1.028534037035703,C,1324,Incorrect
2,new_learn,8,312,B,46.52941157063363,61.378955418788294,2.3264705785316813,0.9641383771434038,D,1188,Incorrect
2,new_learn,8,313,A,22.93297209347599,61.19235795438915,1.1466486046737996,0.9612073110267294,A,1198,Incorrect
2,new_learn,8,314,A,41.49380216264327,40.647366464958615,2.0746901081321636,0.6384873393704306,C,1245,Correct
2,new_learn,8,315,B,45.437190979541015,78.95139255261851,2.2718595489770506,1.240165574169951,D,1264,Incorrect
2,new_learn,8,316,C,52.76855344207129,36.748828051134936,2.6384276721035644,0.5772492411674002,C,1030,Correct
2,new_learn,8,317,A,36.010260209223,68.62388697198024,1.8005130104611498,1.077941495859747,B,2099,Incorrect
2,new_learn,8,318,C,98.98153594134145,57.111329197379234,4.949076797067073,0.8971026612161743,C,2383,Incorrect
2,new_learn,8,319,A,26.979598477730928,40.007588573000405,1.3489799238865465,0.6284377317439052,B,1789,Incorrect
2,new_learn,8,320,B,49.61152503394852,59.31091195721546,2.4805762516974257,0.9316536264124955,C,2134,Incorrect
2,new_learn,8,321,C,52.77808987428042,55.310831854822396,2.638904493714021,0.8688205150952517,C,3157,Incorrect
2,new_learn,8,322,B,45.24990902893148,92.65186777048949,2.262495451446574,1.4553721356457134,B,840,Correct
2,new_learn,8,323,D,35.84546937913635,43.63943849553105,1.7922734689568174,0.6854866969217197,B,957,Incorrect
2,new_learn,8,324,C,95.13885398448625,45.92115244559918,4.756942699224312,0.7213277758373567,C,1118,Incorrect
2,new_learn,8,325,D,39.44529186303966,27.471717824214544,1.9722645931519827,0.4315247344902209,C,1061,Incorrect
2,new_learn,8,326,D,70.50936651048649,24.16353690714862,3.525468325524324,0.3795599501612197,D,1453,Incorrect
2,new_learn,8,327,A,13.272367129412352,47.03294982469121,0.6636183564706175,0.7387918482295364,A,620,Correct
2,new_learn,8,328,C,83.76431988403037,55.23759566226126,4.188215994201519,0.8676701236726171,C,2204,Incorrect
2,new_learn,8,329,B,38.727562537655984,62.12604802109818,1.9363781268827993,0.9758736802982437,C,1775,Incorrect
2,new_learn,8,330,C,74.12249235009887,31.594315471668267,3.706124617504943,0.4962823469049569,D,941,Incorrect
2,new_learn,8,331,C,74.57824763294992,37.61247554676753,3.728912381647496,0.590815384305253,C,629,Incorrect
2,new_learn,8,332,C,87.04879441957203,69.20213165690163,4.352439720978602,1.087024542130379,B,1550,Incorrect
2,new_learn,8,333,C,53.02967667654258,62.52300040997832,2.651483833827129,0.9821089938418975,C,1796,Incorrect
2,new_learn,8,334,B,38.31327928901558,64.21449503765677,1.9156639644507791,1.0086789293214038,C,1605,Correct
2,new_learn,8,335,C,68.1653484058498,49.03788808145442,3.4082674202924896,0.7702853447212784,C,1959,Incorrect
2,new_learn,8,336,D,58.836567825919616,17.62729977702501,2.9418283912959806,0.27688897741063384,B,1668,Correct
2,new_learn,8,337,A,8.837479030425374,54.15089988434194,0.4418739515212687,0.8506003463096251,A,710,Correct
2,new_learn,8,338,A,32.20059927596899,46.35939920452722,1.6100299637984494,0.7282117398288961,C,1916,Correct
2,new_learn,8,339,D,48.41567874629312,38.85446594947817,2.420783937314656,0.6103245239301769,C,3245,Incorrect
2,new_learn,8,340,A,33.92613671647986,73.43878047434217,1.6963068358239928,1.1535736661339344,B,1695,Correct
2,new_learn,8,341,A,14.111200545363562,31.50996908092007,0.7055600272681781,0.49495743689730004,A,693,Correct
2,new_learn,8,342,B,58.1273264186665,94.83933041126036,2.9063663209333246,1.4897327184569529,B,1020,Incorrect
2,new_learn,8,343,D,71.03708200884265,9.769509052727846,3.551854100442132,0.1534590893461439,C,984,Incorrect
2,new_learn,8,344,D,26.54618564843912,18.577149041405768,1.3273092824219561,0.2918091747656152,C,2124,Incorrect
2,new_learn,8,345,D,44.930840803296896,4.867295167626917,2.2465420401648446,0.07645529370734912,B,758,Incorrect
2,new_learn,8,346,C,58.17259710432412,60.901590087005204,2.908629855216206,0.9566399400463627,C,1630,Incorrect
2,new_learn,8,347,B,33.901604400855334,77.48629065443569,1.6950802200427666,1.2171518073694931,B,1462,Incorrect
2,new_learn,8,348,D,35.737508995881214,36.73696878649159,1.7868754497940609,0.5770629562739975,C,1780,Incorrect
2,new_learn,8,349,A,31.819803251513868,40.71017300216438,1.5909901625756933,0.6394739021498458,A,396,Incorrect
2,new_learn,8,350,B,27.35376719581558,73.96903595601187,1.367688359790779,1.1619028997626306,D,429,Incorrect
2,new_learn,8,351,B,59.04677652594069,58.91962149982383,2.952338826297035,0.9255072502806889,C,1453,Incorrect
2,new_learn,8,352,D,44.91579559242376,27.59095754475434,2.2457897796211883,0.4333977476405405,C,1005,Incorrect
2,new_learn,8,353,A,38.52386484472058,67.58917847440514,1.9261932422360288,1.061688332786803,B,3117,Incorrect
2,new_learn,8,354,B,65.9530159787208,87.83345305584554,3.2976507989360404,1.3796846542983416,B,1415,Correct
2,new_learn,8,355,A,4.521778151270997,57.98062280250949,0.22608890756354985,0.9107574932346231,A,743,Incorrect
2,new_learn,8,356,D,58.11965075707662,27.154707110955904,2.905982537853831,0.42654514185080794,C,1277,Incorrect
2,new_learn,8,357,D,67.8579263965102,5.85382612865315,3.39289631982551,0.09195168580584358,D,2351,Incorrect
2,new_learn,8,358,B,63.315371244287334,54.188535260795646,3.165768562214367,0.8511915214205353,D,2021,Incorrect
2,new_learn,8,359,A,24.669694161354712,70.51524586556539,1.2334847080677356,1.1076508918866912,A,974,Correct
2,new_learn,8,360,A,23.21512497820907,26.96952617221533,1.1607562489104535,0.4236363264671467,A,797,Incorrect
2,new_learn,8,361,D,42.36795995514486,49.99926853893362,2.1183979977572434,0.7853866736338857,A,1085,Incorrect
2,new_learn,8,362,D,59.668112958170624,10.336874097510629,2.9834056479085316,0.16237123862911007,C,1062,Incorrect
2,new_learn,8,363,D,51.19109443173737,25.214884837461632,2.559554721586869,0.39607448483241064,D,1069,Incorrect
2,new_learn,8,364,D,50.48012420773583,26.43710404515587,2.5240062103867915,0.4152730592522534,C,981,Incorrect
2,new_learn,8,365,D,47.84491455523298,37.75440682080862,2.392245727761649,0.5930448355444636,C,1358,Incorrect
2,new_learn,8,366,D,74.28758068832,28.013857619546215,3.7143790344160004,0.4400406464813842,C,1607,Correct
2,new_learn,8,367,D,32.45832298162826,24.89612268149716,1.622916149081413,0.3910673805953086,C,1629,Incorrect
2,new_learn,8,368,B,52.72818625727424,70.2710693618448,2.636409312863712,1.103815376335352,C,1796,Incorrect
2,new_learn,8,369,D,72.41538511320442,29.475748352489333,3.620769255660221,0.46300397241620966,C,1594,Incorrect
2,new_learn,8,370,A,24.737612479387572,52.94384952348535,1.2368806239693786,0.8316400435787252,A,1031,Incorrect
2,new_learn,8,371,A,40.81556583664733,44.22063275954264,2.0407782918323663,0.6946160750723565,B,1055,Correct
2,new_learn,8,372,D,36.67902696365132,3.6232999330662423,1.833951348182566,0.05691466225736649,B,3309,Incorrect
2,new_learn,8,373,D,60.08281430533398,47.935887797765936,3.004140715266699,0.7529751647438304,C,1728,Incorrect
2,new_learn,8,374,D,48.536004867345085,11.371647701644221,2.426800243367254,0.17862542439348372,C,1052,Incorrect
2,new_learn,8,375,C,89.52031339174573,68.47478782180725,4.476015669587286,1.0755994518855476,D,2132,Incorrect
2,new_learn,8,376,B,64.80771410545395,61.002522573037794,3.240385705272698,0.9582253838295054,C,790,Incorrect
2,new_learn,8,377,B,50.453837829133946,83.95628465067001,2.522691891456697,1.318782235406192,C,1451,Incorrect
2,new_learn,8,378,A,5.856631512747061,35.862233853966835,0.29283157563735307,0.5633226520847069,A,734,Incorrect
2,new_learn,8,379,C,83.37450462412525,69.13980222932882,4.168725231206263,1.0860454737715532,C,1965,Incorrect
2,new_learn,8,380,B,61.99325078987511,84.0561030027186,3.099662539493756,1.3203501784136384,B,1150,Correct
2,new_learn,8,381,A,19.257167155795095,33.88769589733106,0.9628583577897547,0.532306682390701,A,1631,Incorrect
2,new_learn,8,382,D,57.87988250381057,27.356653667166768,2.893994125190529,0.4297173109378569,B,1165,Incorrect
2,new_learn,8,383,B,58.61230276523946,66.81462459551918,2.930615138261973,1.0495216689082147,A,910,Incorrect
2,new_learn,8,384,C,61.67274588781733,30.96308558696322,3.0836372943908663,0.48636701106237823,C,550,Incorrect
2,new_learn,8,385,A,48.227743661296635,56.30971300226385,2.4113871830648317,0.8845109034683086,C,547,Incorrect
2,new_learn,8,386,B,45.20101574723824,69.31112517380933,2.260050787361912,1.08873660829041,C,2575,Correct
2,new_learn,8,387,D,53.5281680381549,2.894323653517219,2.6764084019077448,0.045463929635004334,B,1559,Incorrect
2,new_learn,8,388,D,58.6429273331274,2.2043899632493122,2.9321463666563705,0.03462647657095557,D,1446,Incorrect
2,new_learn,8,389,D,60.41230320161885,10.804760973724367,3.0206151600809426,0.16972078849423086,A,1815,Incorrect
2,new_learn,8,390,B,52.52124093639618,71.94890020369996,2.626062046819809,1.1301706815690449,C,1317,Incorrect
2,new_learn,8,391,C,92.10869392403404,31.80394515383621,4.605434696201701,0.4995752022523227,C,1486,Correct
2,new_learn,8,392,B,57.52896922809893,95.13555910045791,2.8764484614049466,1.4943858678257809,B,1860,Incorrect
2,new_learn,8,393,C,73.81373781850911,74.12220849298939,3.690686890925456,1.1643089283471324,C,3358,Incorrect
2,new_learn,8,394,D,27.279387645139252,22.350869463876712,1.3639693822569625,0.3510866365452976,A,452,Incorrect
2,new_learn,8,395,B,27.928056959805307,80.68863777058472,1.3964028479902655,1.2674541582411842,B,758,Correct
2,new_learn,8,396,D,25.992149631547637,36.2523012158461,1.2996074815773817,0.5694498158771322,B,1459,Incorrect
2,new_learn,8,397,B,50.3812954114479,58.856144938217675,2.519064770572395,0.9245101627826036,C,1273,Incorrect
2,new_learn,8,398,D,36.512738473534235,31.74093049707219,1.8256369236767116,0.49858537033853106,C,1573,Incorrect
2,new_learn,8,399,C,70.24171590110781,62.95897901442754,3.5120857950553903,0.9889573297461975,D,3428,Incorrect
2,new_learn,8,400,D,65.66652349023315,7.600596014837663,3.2833261745116573,0.11938988301558931,B,1821,Incorrect
2,new_learn,8,401,B,41.54907854204615,74.88384637584475,2.0774539271023076,1.1762727082345026,C,1543,Correct
2,new_learn,8,402,C,89.19991394650503,55.58599519106855,4.459995697325252,0.8731427706736926,D,2918,Incorrect
2,new_learn,8,403,D,43.53553773133541,49.87496669799782,2.1767768865667705,0.7834341448823277,C,2653,Incorrect
2,new_learn,8,404,C,62.45234107110183,39.87553947678171,3.1226170535550914,0.626363509390936,D,1806,Incorrect
2,new_learn,8,405,C,77.31490565136208,37.125850505393046,3.8657452825681045,0.5831714960300786,D,1615,Incorrect
2,new_learn,8,406,D,37.581601639685815,23.572659614089517,1.8790800819842906,0.37027847134598213,A,1157,Correct
2,new_learn,8,407,C,85.23786707389694,73.98577002659569,4.261893353694847,1.1621657579286846,C,1862,Incorrect
2,new_learn,8,408,A,33.57191745430045,39.66498488343623,1.6785958727150223,0.6230561255727673,A,1068,Correct
2,new_learn,8,409,A,9.347211836536127,56.505140260172155,0.46736059182680634,0.8875806676570885,A,622,Correct
2,new_learn,8,410,B,72.41329966407216,74.90226463291988,3.620664983203608,1.1765620215400983,B,1248,Incorrect
2,new_learn,8,411,B,33.681016032169815,63.433987234581224,1.6840508016084907,0.9964187414203456,C,1695,Incorrect
2,new_learn,8,412,C,78.03659765320727,42.43763074892974,3.9018298826603632,0.66660874498297,C,1098,Correct
2,new_learn,8,413,B,52.62898583276275,99.05312729636543,2.6314492916381376,1.5559228851467812,B,960,Correct
2,new_learn,8,414,A,28.226207178580587,75.65633138102639,1.4113103589290292,1.1884068743209373,A,1580,Incorrect
2,new_learn,8,415,C,62.01418338760416,32.95812727492269,3.100709169380208,0.5177050526148725,C,1429,Correct
2,new_learn,8,416,A,9.236856549998002,30.35523498232694,0.46184282749990013,0.476818916092351,A,782,Correct
2,new_learn,8,417,C,63.04784300586039,43.77670622083775,3.1523921502930197,0.6876428933087124,D,1574,Incorrect
2,new_learn,8,418,A,15.825828024626533,43.3827698198377,0.7912914012313267,0.6814549547918956,A,797,Correct
2,new_learn,8,419,D,52.249629150483614,2.0320431499009928,2.6124814575241806,0.03191925915753211,B,1327,Incorrect
2,new_learn,8,420,B,30.99721544925799,62.41534110339055,1.5498607724628994,0.9804178854085639,C,2326,Incorrect
2,new_learn,8,421,C,86.7062308188549,55.75705691378434,4.335311540942746,0.8758298019306643,C,2291,Incorrect
2,new_learn,8,422,A,38.37602935149513,29.65009853949237,1.9188014675747564,0.4657426587494134,C,1479,Incorrect
2,new_learn,8,423,A,24.178755425675625,37.33659022361642,1.2089377712837814,0.5864817877830292,A,1830,Incorrect
2,new_learn,8,424,B,50.65159238998973,79.18031483299407,2.5325796194994865,1.2437614769413052,B,1620,Incorrect
2,new_learn,8,425,D,39.131184304948555,40.10383940649329,1.9565592152474278,0.6299496363009208,C,1287,Incorrect
2,new_learn,8,426,A,30.003250316556382,73.3633632088022,1.5001625158278191,1.1523890144970634,B,3024,Incorrect
2,new_learn,8,427,D,42.67826424656667,15.054777256248862,2.1339132123283333,0.23647988814831067,C,1068,Incorrect
2,new_learn,8,428,D,54.74828397574387,10.567416594688625,2.7374141987871936,0.16599259170648328,D,3151,Incorrect
2,new_learn,8,429,B,43.13289648340698,54.356153557947295,2.156644824170349,0.8538244634752294,C,806,Incorrect
2,new_learn,8,430,C,79.13722271823444,70.41662877740848,3.9568611359117223,1.1061018182883304,C,1006,Correct
2,new_learn,8,431,D,30.246613774099888,17.49277390745827,1.5123306887049943,0.2747758499928906,A,2612,Correct
2,new_learn,8,432,A,8.679571630714673,29.43232727711842,0.43397858153573365,0.46232191575922854,A,662,Correct
2,new_learn,8,433,C,72.80554793698028,71.52070202528822,3.6402773968490134,1.1234445603111505,C,907,Incorrect
2,new_learn,8,434,C,97.44331757390263,56.67386744142985,4.872165878695132,0.8902310280225889,C,2536,Correct
2,new_learn,8,435,D,39.39488979252612,33.72225543596611,1.969744489626306,0.529707949700548,A,2388,Incorrect
2,new_learn,8,436,C,89.95799398807954,27.82716426549246,4.497899699403977,0.43710807413353764,C,1046,Incorrect
2,new_learn,8,437,A,8.331437489327875,57.74918639390585,0.41657187446639377,0.9071220986294113,A,676,Incorrect
2,new_learn,8,438,D,25.69171128653789,29.989903096494462,1.2845855643268944,0.47108029624908393,B,1405,Incorrect
2,new_learn,8,439,C,79.80543853161248,31.198627345961995,3.990271926580624,0.4900668923607991,C,1319,Incorrect
2,new_learn,8,440,D,46.836001638007296,49.626041153736054,2.341800081900365,0.7795240315766095,C,902,Correct
2,new_learn,8,441,B,48.1194154497456,50.72220641208193,2.40597077248728,0.7967425551903085,C,837,Incorrect
2,new_learn,8,442,A,36.84070170849023,62.6971464813981,1.8420350854245116,0.9848444739350171,C,1109,Incorrect
2,new_learn,8,443,B,43.98802717636158,49.496882675063986,2.1994013588180787,0.7774952149378846,D,1036,Incorrect
2,new_learn,8,444,B,45.336273572435,100.20746402804667,2.26681367862175,1.5740551641268743,B,1073,Correct
2,new_learn,8,445,B,54.62162342021852,55.665702706914274,2.731081171010926,0.8743948134047766,C,1162,Incorrect
2,new_learn,8,446,C,60.64806297580876,62.63449807277354,3.032403148790438,0.9838603950335469,C,3487,Correct
2,new_learn,8,447,A,24.490246319259825,42.09437125684385,1.2245123159629911,0.66121683748991,C,1723,Incorrect
2,new_learn,8,448,C,95.88369930291262,51.3582638925076,4.794184965145631,0.8067337227291391,C,1838,Correct
2,new_learn,8,449,B,28.91036924729552,81.42655298998386,1.445518462364776,1.2790453034023668,B,2607,Incorrect
2,new_learn,8,450,D,31.013183307714634,19.088607781256727,1.5506591653857316,0.29984314986426547,C,3197,Incorrect
2,new_learn,8,451,B,34.29326686950826,94.59879343594284,1.714663343475413,1.4859543724840818,B,2580,Incorrect
2,new_learn,8,452,A,43.93368888725071,48.29741627096368,2.1966844443625355,0.7586540407211382,A,2894,Correct
2,new_learn,8,453,B,34.957492019663604,62.204576003465995,1.7478746009831803,0.9771071949607835,A,559,Incorrect
2,new_learn,8,454,A,5.86384364882089,66.78311768961171,0.2931921824410445,1.0490267595875336,A,724,Incorrect
2,new_learn,8,455,A,48.917272509463785,56.542097799048115,2.445863625473189,0.8881611953202259,A,2550,Correct
2,new_learn,8,456,A,3.665090316347822,53.177846698935596,0.1832545158173911,0.8353156626155016,A,943,Correct
2,new_learn,8,457,C,65.15455442342433,54.445584864741264,3.257727721171216,0.8552292471573538,C,1268,Correct
2,new_learn,8,458,D,66.88253773198574,36.55723112239926,3.3441268865992866,0.5742396436485683,C,1797,Correct
2,new_learn,8,459,A,28.925154824714355,66.52613624014515,1.4462577412357178,1.0449901044187684,C,2303,Incorrect
2,new_learn,8,460,B,44.597715664492156,81.02782119385245,2.229885783224608,1.2727820389949709,C,2415,Incorrect
2,new_learn,8,461,B,40.3756238418584,80.43582053217621,2.01878119209292,1.263482914346759,D,1750,Correct
2,new_learn,8,462,B,52.69121072085343,88.9952480831913,2.6345605360426716,1.3979340879127746,B,1233,Incorrect
2,new_learn,8,463,B,49.590333992131995,89.68592384433873,2.4795166996066,1.4087831973989409,B,1279,Incorrect
2,new_learn,8,464,C,93.39024505173457,32.5734401542303,4.6695122525867285,0.5116624014533835,C,2128,Correct
2,new_learn,8,465,C,67.64678755278922,58.2972415952375,3.3823393776394606,0.9157309296007372,C,1450,Correct
2,new_learn,8,466,D,65.55177480736184,33.173702511250085,3.277588740368092,0.5210913005085828,C,1253,Incorrect
2,new_learn,8,467,A,43.088604467107416,30.512439094285682,2.1544302233553707,0.47928827250856954,C,1293,Incorrect
2,new_learn,8,468,C,82.86473632072244,27.172557630101156,4.143236816036122,0.42682553714985527,C,1087,Incorrect
2,new_learn,8,469,C,81.75904681032826,50.46024781369231,4.087952340516413,0.7926277191490808,D,1655,Incorrect
2,new_learn,8,470,B,39.41168489937431,95.90314658384494,1.9705842449687154,1.5064431038197617,B,978,Incorrect
2,new_learn,8,471,C,55.22973611718301,60.327105839241725,2.76148680585915,0.9476159625844786,C,792,Incorrect
2,new_learn,8,472,B,55.28563775117253,94.38346648561048,2.7642818875586266,1.482572024657662,B,926,Incorrect
2,new_learn,8,473,B,46.65751853994308,96.13528289492147,2.3328759269971537,1.510089492467309,A,524,Incorrect
2,new_learn,8,474,C,96.96851911226523,40.25041481592381,4.848425955613261,0.6322520374482401,C,965,Incorrect
2,new_learn,8,475,C,95.37620747960918,45.957361282296105,4.768810373980459,0.7218965429141673,C,1254,Incorrect
2,new_learn,8,476,A,23.1460546292376,53.39944915904884,1.15730273146188,0.8387965859190475,B,1119,Incorrect
2,new_learn,8,477,A,29.256155079498285,71.55037643396658,1.4628077539749142,1.1239106848326683,C,1334,Incorrect
2,new_learn,8,478,B,46.395795218473516,54.86047545036958,2.3197897609236757,0.8617463332366213,A,2060,Incorrect
2,new_learn,8,479,D,61.337453356542746,1.9552262017855817,3.066872667827137,0.030712621358179287,B,1341,Incorrect
2,new_learn,8,480,B,51.108049981906284,48.439025803513424,2.555402499095314,0.760878438056821,C,927,Incorrect
2,new_learn,8,481,C,67.41339842459215,59.67209797872,3.3706699212296076,0.9373271231711854,C,998,Incorrect
2,new_learn,8,482,D,37.52070816911535,41.340929133327734,1.8760354084557676,0.6493817962891933,C,1110,Incorrect
2,new_learn,8,483,B,50.85644992484325,99.3929086742037,2.542822496242162,1.5612601585489978,B,1022,Incorrect
2,new_learn,8,484,B,49.399767362307955,83.22656370244871,2.4699883681153976,1.307319805555679,A,2221,Incorrect
2,new_learn,8,485,D,26.771360150575575,20.733948765107925,1.3385680075287787,0.32568810560185113,A,814,Incorrect
2,new_learn,8,486,C,73.09698609007548,63.58376037743335,3.6548493045037738,0.998771372446792,C,1437,Correct
2,new_learn,8,487,B,66.13427528817263,63.37821820244033,3.3067137644086313,0.9955427235119872,C,798,Incorrect
2,new_learn,8,488,D,38.896194456857124,45.63581653220987,1.9448097228428562,0.7168457297908108,D,2519,Correct
2,new_learn,8,489,C,86.49508153228692,45.456994012195445,4.3247540766143455,0.7140367922149421,C,1810,Correct
2,new_learn,8,490,D,71.73785732939976,32.5013321979295,3.5868928664699875,0.5105297323244836,D,925,Incorrect
2,new_learn,8,491,A,1.5658111987304153,47.71790544982109,0.07829055993652076,0.7495511060292515,A,960,Correct
2,new_learn,8,492,D,59.99773778892849,20.582474659563196,2.999886889446424,0.3233087559159091,B,2348,Incorrect
2,new_learn,8,493,B,51.386055869601506,83.59731566213415,2.569302793480075,1.313143563719938,B,1430,Correct
2,new_learn,8,494,C,68.1512953174679,53.946498639062206,3.4075647658733947,0.8473896190568481,C,1405,Incorrect
2,new_learn,8,495,C,74.38564601660786,50.027894286122965,3.7192823008303937,0.7858363258192536,A,2625,Correct
2,new_learn,8,496,B,51.89139886217825,77.30298772529797,2.594569943108912,1.21427249169169,A,1593,Incorrect
2,new_learn,8,497,A,37.45720597210201,71.24050729560659,1.8728602986051004,1.1190432717894387,A,2511,Correct
2,new_learn,8,498,A,24.13092294101229,67.42231335238223,1.2065461470506145,1.0590672215793653,A,901,Correct
2,new_learn,8,499,A,20.03045684295501,69.76437974101115,1.0015228421477504,1.0958563143830462,A,606,Incorrect
2,new_learn,8,500,C,88.78629042627672,59.25068078039499,4.439314521313836,0.9307075172994141,C,1274,Correct
2,new_learn,8,501,D,61.50075240234874,35.40324450935529,3.0750376201174365,0.5561128643191688,C,2791,Incorrect
2,new_learn,8,502,D,50.4791369897086,23.032844377719677,2.52395684948543,0.36179907344160556,B,2566,Correct
2,new_learn,8,503,C,56.75502598214445,59.02676297335848,2.837751299107223,0.9271902246114452,B,2356,Incorrect
2,new_learn,8,504,A,40.210314446866164,29.56237005222226,2.010515722343308,0.46436462289382185,C,2829,Correct
2,new_learn,8,505,C,76.93668193760853,61.22391485994396,3.846834096880426,0.9617030057400346,C,2443,Correct
2,new_learn,8,506,C,95.8728137779243,36.67004984699966,4.7936406888962155,0.5760117960305283,B,4233,Incorrect
2,new_learn,8,507,C,53.850993960210836,51.00434176545512,2.692549698010542,0.8011743269576844,C,1139,Incorrect
2,new_learn,8,508,B,31.047787695954472,93.6827797628784,1.5523893847977237,1.4715656633546463,B,1158,Incorrect
2,new_learn,8,509,A,12.522179700709591,61.45383883286152,0.6261089850354796,0.9653146430610445,A,566,Incorrect
2,new_learn,8,510,B,65.36168744757595,79.96944717718134,3.268084372378797,1.2561571388173496,B,756,Correct
2,new_learn,8,511,D,61.00685355342042,17.93135705812339,3.050342677671021,0.2816650980134796,C,2008,Incorrect
2,new_learn,8,512,B,46.11768811274835,93.23517772784925,2.3058844056374173,1.4645347470297492,B,997,Correct
2,new_learn,8,513,C,76.19505842930366,76.30274097981335,3.8097529214651833,1.1985606525547323,B,1012,Correct
2,new_learn,8,514,A,33.63502292121569,52.6663462454126,1.6817511460607846,0.827281032280023,B,1376,Incorrect
2,new_learn,8,515,D,52.135606646114844,26.93362360627987,2.606780332305742,0.4230723702802074,A,2379,Incorrect
2,new_learn,8,516,B,35.755075728839195,60.62333158599787,1.7877537864419597,0.9522690657335449,A,1391,Incorrect
2,new_learn,8,517,D,39.21099959191192,4.099220926608563,1.960549979595596,0.06439041174237503,B,1867,Incorrect
2,new_learn,8,518,C,93.0194088964796,47.208893121084095,4.65097044482398,0.7415555590665175,C,1494,Incorrect
2,new_learn,8,519,C,78.44134067776058,47.832946030565736,3.922067033888029,0.7513581592459119,D,3190,Correct
2,new_learn,8,520,A,16.559538694830344,71.27002555903367,0.8279769347415171,1.1195069435870848,A,3813,Correct
2,new_learn,8,521,D,52.158252507676934,23.897623091458048,2.6079126253838467,0.37538298571191203,C,4430,Correct
2,new_learn,8,522,A,10.1127280935162,31.22266589193188,0.50563640467581,0.490444488957909,A,1382,Correct
2,new_learn,8,523,A,27.890334382031273,37.865121622265036,1.3945167191015637,0.5947839395789594,C,1870,Incorrect
2,new_learn,8,524,D,67.01994271004207,26.803611744461634,3.3509971355021038,0.4210301487303688,B,3517,Incorrect
2,new_learn,8,525,D,67.0920012683684,33.42982713188076,3.3546000634184203,0.5251144966414666,C,1263,Correct
2,new_learn,8,526,A,21.57868341201017,31.638947950428214,1.0789341706005087,0.4969834322418757,C,4109,Incorrect
2,new_learn,8,527,C,87.49583415595082,55.05577313471674,4.374791707797541,0.8648140620886621,C,1246,Correct
2,new_learn,8,528,B,67.10669378124626,75.40547883617563,3.355334689062313,1.18446649176075,C,1373,Incorrect
2,new_learn,8,529,A,45.36572852184031,37.69049409572941,2.2682864260920157,0.5920408968065651,C,1102,Incorrect
2,new_learn,8,530,B,70.72109347301736,61.88882246569736,3.5360546736508685,0.9721473499877888,B,1532,Correct
2,new_learn,8,531,D,34.82164520878465,39.898080168822304,1.7410822604392324,0.6267175777535439,B,1167,Incorrect
2,new_learn,8,532,D,24.751555813754923,22.420120950784003,1.237577790687746,0.35217443635788814,C,1699,Correct
2,new_learn,8,533,A,17.527680045767074,58.02780479608541,0.8763840022883537,0.9114986262566226,A,3551,Correct
2,new_learn,8,534,D,59.46940961206778,48.44318617102283,2.9734704806033894,0.7609437889568398,C,4661,Incorrect
2,new_learn,8,535,A,13.71332046466633,34.820891486289106,0.6856660232333165,0.546965284423866,A,1989,Incorrect
2,new_learn,8,536,A,6.612163563682575,43.676392209049965,0.33060817818412874,0.6860671644962892,A,788,Incorrect
2,new_learn,8,537,D,60.233383558002544,6.480377117887098,3.011669177900127,0.10179352573022751,C,1837,Incorrect
2,new_learn,8,538,B,73.2715012743537,76.23884802825667,3.6635750637176847,1.1975570244185991,B,1550,Correct
2,new_learn,8,539,C,90.73878035813149,59.267825788270514,4.536939017906575,0.9309768304533517,C,1751,Incorrect
2,new_learn,8,540,B,64.32770331470111,89.08773637162219,3.2163851657350557,1.3993868905501623,C,1918,Incorrect
2,new_learn,8,541,C,71.25608670045689,69.38911604194116,3.5628043350228444,1.0899616859822603,B,637,Incorrect
2,new_learn,8,542,D,68.4052717661551,15.173780906666337,3.4202635883077552,0.23834919311782019,D,2341,Incorrect
2,new_learn,8,543,D,36.22814476552574,11.312456917179384,1.8114072382762871,0.17769565772530896,A,1035,Correct
2,new_learn,8,544,B,74.33748996518801,66.31522444565017,3.7168744982594006,1.0416771096980642,C,1293,Incorrect
2,new_learn,8,545,A,7.1268596940322695,38.0607944943821,0.35634298470161346,0.5978575618667082,A,702,Incorrect
2,new_learn,8,546,D,64.31891971057384,36.209641452679804,3.2159459855286916,0.5687797178842966,C,1295,Incorrect
2,new_learn,8,547,A,6.307601666903839,40.332596609966636,0.31538008334519196,0.6335429460503589,A,1603,Incorrect
2,new_learn,8,548,D,71.17146580113146,41.27554877124578,3.5585732900565734,0.6483548039631647,C,1023,Incorrect
2,new_learn,8,549,D,52.281201185017295,35.374229220085425,2.6140600592508645,0.5556570932211088,C,2383,Correct
2,new_learn,8,550,A,6.675740507727173,53.78161951247664,0.3337870253863586,0.8447997037927902,A,1347,Incorrect
2,new_learn,8,551,A,7.46885908773325,32.27112719646577,0.37344295438666253,0.5069136806173932,A,1223,Incorrect
2,new_learn,8,552,C,56.95832520502381,46.6616641930879,2.8479162602511905,0.7329597071663941,C,1524,Incorrect
2,new_learn,8,553,A,48.40837217581092,38.82382336145834,2.4204186087905457,0.6098431912831266,C,1223,Incorrect
2,new_learn,8,554,C,70.32223643786122,72.23173712208691,3.5161118218930607,1.134613473493887,C,2552,Incorrect
2,new_learn,8,555,A,17.000604506495947,40.261926485646114,0.8500302253247973,0.6324328623333908,A,1058,Correct
2,new_learn,8,556,A,7.17275825661676,36.11992333000072,0.358637912830838,0.5673704289087841,B,1040,Incorrect
2,new_learn,8,557,D,66.6942018769584,26.804399690878263,3.33471009384792,0.4210425257637384,C,1141,Incorrect
2,new_learn,8,558,B,32.44483318815698,92.32034577200952,1.6222416594078488,1.450164600271073,B,1092,Incorrect
2,new_learn,8,559,D,56.17126755166694,40.8995200320617,2.8085633775833467,0.6424481583403682,C,1017,Correct
2,new_learn,8,560,C,79.03070838832679,58.495031607309635,3.9515354194163392,0.9188378078451335,D,1107,Incorrect
2,new_learn,8,561,B,29.575356198312186,80.25862240385709,1.4787678099156094,1.2606994926559727,B,1509,Incorrect
2,new_learn,8,562,B,65.23864486981131,94.21567355349472,3.2619322434905653,1.479936339443366,B,1446,Correct
2,new_learn,8,563,B,49.30500547580369,85.58101863977294,2.4652502737901845,1.344303497227209,B,1326,Correct
2,new_learn,8,564,A,2.3130830763777226,61.84543396180251,0.11565415381888614,0.9714658049623573,A,1942,Incorrect
2,new_learn,8,565,C,72.71987065613075,68.3675078175195,3.6359935328065376,1.07391430151881,A,2308,Incorrect
2,new_learn,8,566,C,67.2531394699509,45.995036325223985,3.3626569734975447,0.7224883411045968,C,655,Correct
2,new_learn,8,567,B,69.81916015454712,84.84213283828417,3.490958007727356,1.3326971061982147,B,1484,Incorrect
2,new_learn,8,568,C,81.28002688858554,52.97761020816752,4.064001344429277,0.8321703551736134,C,2333,Incorrect
2,new_learn,8,569,D,74.43745784503217,16.420689746461427,3.7218728922516084,0.25793559137180233,B,1047,Incorrect
2,new_learn,8,570,B,60.7437235130986,74.16760452283971,3.03718617565493,1.1650220075165318,B,1355,Correct
2,new_learn,8,571,C,85.19995804413885,66.75028121683397,4.259997902206942,1.0485109654792917,C,1304,Incorrect
2,new_learn,8,572,C,78.59680816116187,47.81863560271248,3.929840408058094,0.7511333715708443,C,1228,Incorrect
2,new_learn,8,573,B,52.9515469262099,76.65283339308728,2.647577346310495,1.2040598913228269,B,789,Correct
2,new_learn,8,574,D,69.31671793067541,28.7177415378847,3.46583589653377,0.4510972292155451,C,1438,Correct
2,new_learn,8,575,B,27.000307982544456,74.51580872232398,1.3500153991272228,1.1704915862917764,A,1430,Incorrect
2,new_learn,8,576,B,40.63950914897572,95.13588874367431,2.031975457448786,1.4943910458493157,B,1276,Incorrect
2,new_learn,8,577,C,80.14059621677967,63.641586442839454,4.007029810838984,0.999679702158121,C,1311,Incorrect
2,new_learn,8,578,D,47.553825961971555,15.375925260647042,2.3776912980985774,0.2415244692049724,C,1717,Incorrect
2,new_learn,8,579,A,38.08612421131216,29.71047023584772,1.904306210565608,0.46669097513818697,B,1484,Incorrect
2,new_learn,8,580,D,72.03185643840042,25.03701459107647,3.6015928219200215,0.3932805055357315,A,735,Correct
2,new_learn,8,581,D,68.14167129852288,23.981830692890227,3.4070835649261437,0.37670571562209076,A,748,Incorrect
2,new_learn,8,582,C,87.89649700644128,67.35306065563448,4.394824850322064,1.0579794027626452,C,1855,Incorrect
2,new_learn,8,583,B,57.09059797108769,79.31970572095898,2.854529898554384,1.2459510238893452,B,1364,Correct
2,new_learn,8,584,A,13.779685125318549,30.007375355586618,0.6889842562659274,0.4713547498531116,A,1413,Correct
2,new_learn,8,585,C,76.46735762078504,68.6372038610283,3.823367881039252,1.0781506770637574,B,1405,Incorrect
2,new_learn,8,586,D,31.304403836213353,40.81433170328272,1.5652201918106676,0.6411100232010498,B,1045,Incorrect
2,new_learn,8,587,A,46.04282893252471,40.93646870024723,2.3021414466262358,0.6430285466630261,B,1150,Incorrect
2,new_learn,8,588,A,38.23413676143484,28.475223467648703,1.9117068380717421,0.4472877642764642,C,1044,Correct
2,new_learn,8,589,B,55.46431428096004,95.51051499904645,2.7732157140480016,1.5002756613079102,B,2280,Incorrect
2,new_learn,8,590,C,71.1194138602739,39.46287625122373,3.5559706930136947,0.619881410601838,C,933,Correct
2,new_learn,8,591,A,32.487324749708684,34.99858285270568,1.6243662374854342,0.5497564538805694,C,1093,Incorrect
2,new_learn,8,592,C,70.44062784792956,49.06998670366466,3.5220313923964786,0.7707895486999088,C,2126,Incorrect
2,new_learn,8,593,C,49.10159861571106,43.6870592820394,2.455079930785553,0.6862347224869839,C,643,Incorrect
2,new_learn,8,594,B,38.45243184167952,81.31675540016025,1.922621592083976,1.277320606894508,B,1049,Correct
2,new_learn,8,595,B,40.75608240152404,63.53927470792102,2.0378041200762023,0.9980725931841421,B,1462,Correct
2,new_learn,8,596,C,72.19436711246715,39.56207382793001,3.6097183556233574,0.6214396024930098,C,1436,Incorrect
2,new_learn,8,597,B,49.63342468898363,72.36718238474013,2.481671234449182,1.1367410427044615,B,911,Correct
2,new_learn,8,598,A,21.04479914514895,58.586349883087564,1.0522399572574475,0.9202722319667457,A,1644,Incorrect
2,new_learn,8,599,D,44.08734264444564,21.492657006368617,2.204367132222282,0.3376058667866642,C,1655,Incorrect
2,new_learn,8,600,B,37.025697867573946,37.05224918650308,1.8512848933786972,0.5820153692164823,C,596,Incorrect
2,new_learn,8,601,D,84.44863804964403,47.634618143190764,4.222431902482202,0.7482428320760157,C,3159,Incorrect
2,new_learn,8,602,C,71.61795074541317,66.77151933533825,3.5808975372706584,1.0488445730646374,B,2126,Incorrect
2,new_learn,8,603,B,14.118448917008244,41.12204521473199,0.7059224458504122,0.6459435757359467,A,718,Incorrect
2,new_learn,8,604,A,44.12215704834785,34.1493184488247,2.2061078524173925,0.5364162398196304,B,782,Incorrect
2,new_learn,8,605,D,59.34403959937794,39.01974122516666,2.9672019799688973,0.6129206618897919,C,959,Incorrect
2,new_learn,8,606,A,46.06482235896105,39.376316805613186,2.303241117948053,0.6185217380096936,C,1006,Incorrect
2,new_learn,8,607,B,6.1570518450171186,61.911382928519686,0.3078525922508559,0.9725017289091097,A,684,Incorrect
2,new_learn,8,608,C,29.26708226048946,58.387244574158636,1.4633541130244732,0.9171446930876364,C,1963,Correct
2,new_learn,8,609,A,39.31367974159059,9.890167451475573,1.9656839870795295,0.15535438704164273,C,2478,Incorrect
2,new_learn,8,610,D,80.46580066248319,56.29498721706698,4.023290033124159,0.8842795913753447,D,1438,Correct
2,new_learn,8,611,C,53.734004635692365,76.91321198850385,2.6867002317846183,1.2081499087353902,D,1701,Incorrect
2,new_learn,8,612,C,57.79794347971638,52.62397262838482,2.889897173985819,0.8266154290602207,C,1456,Correct
2,new_learn,8,613,C,41.46648979498322,85.40231084224449,2.0733244897491607,1.3414963617079358,B,1222,Incorrect
2,new_learn,8,614,A,39.61633267249442,23.364360828940217,1.980816633624721,0.3670065216800986,C,1076,Incorrect
2,new_learn,8,615,B,26.72873812190424,55.68826272126284,1.336436906095212,0.8747491852814885,C,886,Incorrect
2,new_learn,8,616,D,78.35467294555635,41.62770507608356,3.9177336472778173,0.6538864622641332,D,854,Correct
2,new_learn,8,617,C,59.794149582205115,99.75373679172955,2.9897074791102556,1.5669280333651374,B,980,Incorrect
2,new_learn,8,618,C,28.706637642344354,86.12777335001431,1.4353318821172178,1.3528919001322584,B,4751,Incorrect
2,new_learn,8,619,B,22.29102691861553,26.080667608021983,1.1145513459307765,0.4096741687903957,C,1327,Incorrect
2,new_learn,8,620,B,9.420141934510378,58.34848728922505,0.4710070967255189,0.9165358950795341,A,740,Incorrect
2,new_learn,8,621,C,52.22599992553,80.78872782689893,2.6112999962765,1.269026369169255,C,1070,Correct
2,new_learn,8,622,D,83.76820916549693,46.355920086092226,4.188410458274847,0.7281570899643144,D,2421,Correct
2,new_learn,8,623,C,56.10189121566299,96.80196461356729,2.8050945607831492,1.5205617044152109,B,957,Incorrect
2,new_learn,8,624,C,43.70534230043915,70.08081853628534,2.1852671150219574,1.100826923355767,B,1791,Incorrect
2,new_learn,8,625,B,19.8537238185812,51.55630746256256,0.9926861909290601,0.8098445838530158,A,2550,Incorrect
2,new_learn,8,626,A,52.03060925032963,37.333916636494806,2.6015304625164815,0.5864397911747291,C,988,Incorrect
2,new_learn,8,627,A,39.89104455628978,29.547935525229047,1.994552227814489,0.4641378858740222,C,1129,Incorrect
2,new_learn,8,628,D,92.10604277377084,48.142840169172544,4.6053021386885415,0.7562259649921004,D,1315,Correct
2,new_learn,8,629,C,37.42116067478496,56.73250662700768,1.871058033739248,0.8911521301957078,C,1728,Correct
2,new_learn,8,630,A,32.94858704969447,34.28663126791638,1.6474293524847234,0.5385731445381409,D,1957,Incorrect
2,new_learn,8,631,D,49.91905914748443,50.94186827852848,2.4959529573742216,0.80019299571982,C,943,Incorrect
2,new_learn,8,632,D,81.25838180871456,36.88278496997398,4.062919090435728,0.5793534315280114,D,782,Correct
2,new_learn,8,633,A,70.13859848559065,19.58604624076213,3.5069299242795324,0.3076568949142415,D,1044,Incorrect
2,new_learn,8,634,C,61.35519377429621,77.68684048287423,3.06775968871481,1.220302036707999,B,999,Incorrect
2,new_learn,8,635,A,39.94469726000352,38.48503353343886,1.9972348630001762,0.6045214931090418,C,814,Incorrect
2,new_learn,8,636,A,62.433657407497876,47.48423817675172,3.121682870374894,0.745880669086956,D,822,Incorrect
2,new_learn,8,637,A,54.0081273148419,0.7445978770436525,2.700406365742095,0.011696116101994475,B,1022,Incorrect
2,new_learn,8,638,A,58.49729808070332,7.830370155644587,2.924864904035166,0.122999166779309,A,3165,Correct
2,new_learn,8,639,C,66.88076595237841,72.16245178572787,3.3440382976189205,1.1335251419753516,C,1127,Correct
2,new_learn,8,640,C,47.5558415021043,89.72700095986853,2.377792075105215,1.4094284352208366,B,1349,Incorrect
2,new_learn,8,641,D,62.26494079621413,39.76625762175672,3.113247039810706,0.6246469140263502,C,1012,Incorrect
2,new_learn,8,642,A,65.17132254548432,22.209817420695984,3.2585661272742157,0.34887099623214557,C,1014,Incorrect
2,new_learn,8,643,A,52.86806866557197,20.281203683020518,2.6434034332785985,0.3185764024826776,A,460,Correct
2,new_learn,8,644,A,72.20296714338372,21.508409313097683,3.610148357169186,0.33785330344214987,A,542,Correct
2,new_learn,8,645,D,70.44816828190768,36.526042051652794,3.522408414095384,0.5737497268709213,A,663,Incorrect
2,new_learn,8,646,B,34.114573939964814,51.031665413229476,1.7057286969982408,0.8016035258132703,A,2010,Incorrect
2,new_learn,8,647,A,40.646622392649626,44.52002411829184,2.0323311196324814,0.6993189035383304,C,790,Incorrect
2,new_learn,8,648,B,11.717143516926363,51.98982400130318,0.5858571758463181,0.8166542457196018,A,870,Incorrect
2,new_learn,8,649,B,28.91005205765307,66.63633912019881,1.4455026028826534,1.0467211672106735,B,910,Correct
2,new_learn,8,650,D,80.38289982307498,62.372982041267676,4.019144991153749,0.979752510816673,D,1223,Correct
2,new_learn,8,651,A,44.631291179141364,45.714344125357535,2.2315645589570683,0.7180792383394947,C,766,Incorrect
2,new_learn,8,652,A,56.3558950564246,3.213365856693077,2.8177947528212304,0.050475432843416206,B,899,Incorrect
2,new_learn,8,653,D,76.32558182689407,68.1791817346398,3.816279091344703,1.070956082326539,C,2063,Incorrect
2,new_learn,8,654,A,36.888109593096395,35.01295031439781,1.84440547965482,0.549982137441083,C,1164,Incorrect
2,new_learn,8,655,C,53.0713590897804,98.20409517004424,2.65356795448902,1.5425863196932192,B,1358,Incorrect
2,new_learn,8,656,B,26.489969860605594,70.56525867820001,1.3244984930302797,1.1084364913104825,A,1960,Incorrect
2,new_learn,8,657,B,19.227012563246486,30.43801621768502,0.9613506281623243,0.4781192406966312,B,1310,Correct
2,new_learn,8,658,B,30.115512792908763,30.30489249823251,1.5057756396454383,0.47602813820137835,B,1420,Correct
2,new_learn,8,659,D,78.38492601936503,50.773330366698325,3.9192463009682514,0.7975456083915352,C,1685,Incorrect
2,new_learn,8,660,D,86.53589798427902,35.798728201680035,4.326794899213951,0.5623251076312786,D,1244,Correct
2,new_learn,8,661,C,32.77621288951052,88.17166026205457,1.638810644475526,1.3849972006704288,B,1288,Incorrect
2,new_learn,8,662,D,71.05896259987027,56.88492785634796,3.5529481299935135,0.8935463572674405,C,1179,Incorrect
2,new_learn,8,663,B,10.652461556138759,43.53617438935378,0.532623077806938,0.6838646281349897,A,1019,Incorrect
2,new_learn,8,664,D,96.88704578192852,53.26959202200226,4.844352289096426,0.8367567947802387,C,1408,Incorrect
2,new_learn,8,665,A,57.05871715389057,0.07409356718570237,2.8529358576945287,0.0011638590317443217,B,1390,Incorrect
2,new_learn,8,666,A,42.01940022329942,50.26410880254974,2.100970011164971,0.7895467747666416,A,1285,Correct
2,new_learn,8,667,D,63.869714885377334,46.32719691685023,3.193485744268867,0.7277059074769219,A,622,Incorrect
2,new_learn,8,668,A,32.951799776756914,33.15323209442013,1.6475899888378456,0.5207697519529382,A,813,Correct
2,new_learn,8,669,A,73.64293316955909,34.84226861037837,3.6821466584779547,0.5473010755038347,A,1135,Correct
2,new_learn,8,670,D,98.42970295263395,56.6982615253649,4.921485147631697,0.8906142093969959,C,2110,Incorrect
2,new_learn,8,671,C,59.67947378403119,88.51045634899478,2.9839736892015596,1.3903189971594103,B,1588,Incorrect
2,new_learn,8,672,B,5.42284922497128,41.02697395602908,0.271142461248564,0.6444501998964036,A,1135,Incorrect
2,new_learn,8,673,A,29.535272453860806,12.611285804004304,1.4767636226930403,0.19809761417090585,C,5924,Incorrect
2,new_learn,8,674,D,73.2290496878082,47.1474991872445,3.6614524843904097,0.7405911854088904,C,1918,Incorrect
2,new_learn,8,675,A,41.07146249767328,1.8862719277233033,2.053573124883664,0.029629490154040934,B,1174,Incorrect
2,new_learn,8,676,B,17.594242499029935,61.314723036463334,0.8797121249514968,0.9631294172412305,B,2493,Correct
2,new_learn,8,677,D,68.34887709196528,66.36401934952579,3.4174438545982637,1.0424435782558055,A,1263,Incorrect
2,new_learn,8,678,D,76.48539242880945,33.23267105734913,3.8242696214404726,0.5220175762646708,D,1044,Correct
2,new_learn,8,679,B,31.435370229374552,65.47728824459028,1.5717685114687276,1.0285148386309308,A,1821,Incorrect
2,new_learn,8,680,D,69.98670719309357,39.945511008149346,3.4993353596546783,0.627462619635461,D,852,Correct
2,new_learn,8,681,C,23.69115997694167,71.93162642957728,1.1845579988470833,1.1298993457596267,C,1160,Correct
2,new_learn,8,682,C,28.76899514370022,85.23570486991187,1.438449757185011,1.3388793212143144,B,1109,Incorrect
2,new_learn,8,683,D,69.1342717700199,38.37159854480019,3.4567135885009947,0.6027396604742054,C,671,Incorrect
2,new_learn,8,684,B,40.98438365115699,53.84806381184507,2.049219182557849,0.8458434084066345,D,1548,Incorrect
2,new_learn,8,685,A,48.01337905766396,31.35781074907795,2.400668952883198,0.4925673394098116,A,590,Correct
2,new_learn,8,686,C,60.72741934885876,90.4319618805075,3.036370967442938,1.420501935467573,B,2624,Incorrect
2,new_learn,8,687,B,37.51827310794566,32.62241340900002,1.875913655397283,0.512431671540418,A,1662,Incorrect
2,new_learn,8,688,A,57.72306545825382,28.814117899035125,2.8861532729126913,0.4526111055563946,C,772,Incorrect
2,new_learn,8,689,C,44.04245486865297,49.35946899722313,2.202122743432648,0.7753367259338467,C,1304,Correct
2,new_learn,8,690,C,58.115291485615934,99.21681381650093,2.9057645742807967,1.5584940669925282,A,1564,Incorrect
2,new_learn,8,691,C,40.4539752653171,52.370758477649076,2.022698763265855,0.8226379504815385,C,797,Correct
2,new_learn,8,692,D,79.44021756255106,41.26667705238831,3.972010878127553,0.6482154473292281,D,2272,Correct
2,new_learn,8,693,B,20.160860864571248,41.54438223891226,1.0080430432285623,0.6525776301984653,A,1317,Incorrect
2,new_learn,8,694,C,65.82364870069533,79.09950812617409,3.2911824350347665,1.242492168158773,C,1046,Correct
2,new_learn,8,695,C,66.11481741408622,68.00994238834262,3.305740870704311,1.0682976768914112,C,1445,Correct
2,new_learn,8,696,A,60.828484001825764,22.818288423201814,3.0414242000912886,0.3584288363891192,C,1118,Incorrect
2,new_learn,8,697,C,24.600026093669655,82.33247974056592,1.2300013046834828,1.2932755675239618,B,1524,Incorrect
2,new_learn,8,698,B,32.706147482754965,38.12699771149982,1.6353073741377484,0.5988974795694134,D,1174,Incorrect
2,new_learn,8,699,B,26.007316665646908,52.394145143338584,1.3003658332823453,0.823005307367149,C,759,Incorrect
2,new_learn,8,700,B,13.823437618214404,46.302598754878545,0.6911718809107202,0.7273195204522117,A,804,Incorrect
2,new_learn,8,701,C,31.435572996253043,83.1483630329185,1.571778649812652,1.3060914323111694,B,781,Incorrect
2,new_learn,8,702,C,58.5399163466994,83.22147945546165,2.9269958173349697,1.307239942390761,D,3884,Incorrect
2,new_learn,8,703,B,6.385451377149707,31.5889416975727,0.31927256885748534,0.49619793585885347,D,2031,Incorrect
2,new_learn,8,704,B,3.9471032574796006,42.08109859385805,0.19735516287398003,0.6610083509872611,C,771,Incorrect
2,new_learn,8,705,D,100.09078875862383,54.05858359760939,5.004539437931191,0.8491502454685969,C,1157,Incorrect
2,new_learn,8,706,A,45.560473801487504,-0.10117169835385198,2.278023690074375,-0.0015892013214983197,B,870,Incorrect
2,new_learn,8,707,D,65.56373175820704,50.74231086938081,3.2781865879103522,0.7970583552670814,C,901,Incorrect
2,new_learn,8,708,B,13.978665752804096,30.443359734774308,0.6989332876402048,0.4782031764667914,A,1175,Incorrect
2,new_learn,8,709,A,40.361027958918896,17.792858109669726,2.018051397945945,0.27948956161851995,B,723,Incorrect
2,new_learn,8,710,A,28.28932936003073,27.749370793604882,1.4144664680015364,0.43588609713464127,C,694,Incorrect
2,new_learn,8,711,B,44.53189132497589,60.13298738165143,2.2265945662487945,0.9445667569830192,C,977,Incorrect
2,new_learn,8,712,C,52.65911668277412,99.3834118375713,2.632955834138706,1.5611109825880145,B,1132,Incorrect
2,new_learn,8,713,D,66.84525948285054,56.553996827084035,3.342262974142527,0.8883481048155384,C,1517,Incorrect
2,new_learn,8,714,D,85.82904111335684,34.194197270214254,4.2914520556678415,0.5371211946975263,A,676,Incorrect
2,new_learn,8,715,D,97.17030861745606,42.25697727776277,4.858515430872803,0.6637710468936516,D,469,Correct
2,new_learn,8,716,A,72.05912458008828,39.131850157500395,3.602956229004414,0.6146816648808991,D,527,Incorrect
2,new_learn,8,717,C,51.8162691863266,90.20103169827806,2.59081345931633,1.416874492647652,A,1333,Incorrect
2,new_learn,8,718,D,86.76401791609601,51.635925776303566,4.338200895804801,0.8110952254007154,D,1462,Correct
2,new_learn,8,719,C,42.69461900278112,61.12047533441354,2.1347309501390557,0.9600781814725485,C,1173,Correct
2,new_learn,8,720,B,26.199897649321272,38.41917717527413,1.3099948824660634,0.6034870238540294,C,784,Incorrect
2,new_learn,8,721,C,59.83074770312228,76.60518521624871,2.991537385156114,1.2033114355112617,D,955,Incorrect
2,new_learn,8,722,C,43.35593713528875,84.7278058135782,2.1677968567644372,1.330901261493599,B,877,Incorrect
2,new_learn,8,723,D,91.3373752146905,60.749582063995284,4.566868760734525,0.9542522036044893,C,1432,Incorrect
2,new_learn,8,724,B,16.439181881211038,41.45638593168417,0.8219590940605519,0.651195387436811,A,999,Incorrect
2,new_learn,8,725,D,84.16954958446514,62.56695284270701,4.208477479223257,0.9827993970407367,C,2326,Incorrect
2,new_learn,8,726,B,36.01283332133006,39.89285192900109,1.800641666066503,0.6266354527544761,C,924,Incorrect
2,new_learn,8,727,D,78.32018544207904,45.17563139861873,3.9160092721039517,0.7096171586159049,D,1470,Correct
2,new_learn,8,728,B,4.83124289281335,35.70731168388132,0.2415621446406675,0.5608891403276127,A,1019,Incorrect
2,new_learn,8,729,A,70.56780780904971,27.130964315252562,3.528390390452486,0.4261721908880214,D,1463,Incorrect
2,new_learn,8,730,D,96.3792758050615,45.25450243745973,4.8189637902530755,0.7108560619969243,D,740,Correct
2,new_learn,8,731,D,99.45450520399729,43.23899601560303,4.972725260199865,0.6791965611560842,C,1143,Incorrect
2,new_learn,8,732,C,27.647600345764005,85.7477905791468,1.3823800172882001,1.3469231447250183,D,2942,Incorrect
2,new_learn,8,733,A,39.06648062677621,18.493682359042303,1.9533240313388105,0.2904980831849523,A,2131,Correct
2,new_learn,8,734,B,35.17390610813831,71.1476482540453,1.7586953054069157,1.1175846453754967,A,1308,Incorrect
2,new_learn,8,735,D,64.9197078624282,37.05439378966972,3.2459853931214098,0.5820490565642481,C,821,Incorrect
2,new_learn,8,736,A,72.02734611543224,35.11179667038452,3.601367305771612,0.5515348123700928,D,967,Incorrect
2,new_learn,8,737,C,47.921626990523336,82.16742835169104,2.396081349526167,1.2906829463701912,D,1342,Incorrect
2,new_learn,8,738,B,10.02041167186481,53.00535573380982,0.5010205835932404,0.8326061808712527,A,1268,Incorrect
2,new_learn,8,739,A,42.48188615564623,36.632530978035774,2.1240943077823116,0.5754224510149886,C,1159,Incorrect
2,new_learn,8,740,B,8.640761290127195,48.91818954334849,0.43203806450635973,0.7684051244814832,B,1372,Correct
2,new_learn,8,741,B,1.3764842761192995,58.301637131333166,0.06882421380596497,0.915799974520271,B,1336,Correct
2,new_learn,8,742,D,77.68079907797005,68.79543655582519,3.8840399538985024,1.0806361904214155,B,1284,Incorrect
2,new_learn,8,743,D,88.1100002203993,47.36267648317763,4.4055000110199645,0.7439711824695044,C,1487,Incorrect
2,new_learn,8,744,C,66.62928590347397,88.49225826904838,3.3314642951736984,1.390033142388065,C,879,Correct
2,new_learn,8,745,B,21.84692572710314,41.431272284127246,1.092346286355157,0.6508009031834628,B,2131,Correct
2,new_learn,8,746,B,37.70383811873062,32.52216548570131,1.8851919059365312,0.5108569808435538,B,846,Correct
2,new_learn,8,747,D,93.61758692846064,61.17145287998236,4.680879346423032,0.9608789348858339,D,1079,Correct
2,new_learn,8,748,C,68.90056264986723,66.2923734852144,3.445028132493361,1.0413181676509018,D,790,Incorrect
2,new_learn,8,749,A,25.720134153266528,27.342954934687388,1.2860067076633266,0.4295021317512534,B,853,Incorrect
2,new_learn,8,750,D,72.17771137984182,26.309910953012704,3.608885568992091,0.4132751148329318,D,1604,Correct
2,new_learn,8,751,A,71.06900303999376,21.040023438848838,3.5534501519996877,0.33049591533422273,D,1224,Incorrect
2,new_learn,8,752,D,66.23774531753712,40.65222254933448,3.311887265876856,0.6385636185654326,D,1453,Correct
2,new_learn,8,753,B,49.41269400647914,40.28823288786521,2.470634700323957,0.6328460823331602,D,1100,Incorrect
2,new_learn,8,754,C,45.508652378713066,49.12748668975868,2.2754326189356533,0.7716927563693812,B,1587,Incorrect
2,new_learn,8,755,C,45.68584537512657,95.85925011588105,2.2842922687563285,1.505753579713392,A,1823,Incorrect
2,new_learn,8,756,D,65.69067900470303,45.25027357362194,3.2845339502351516,0.7107896351590952,D,1559,Correct
2,new_learn,8,757,B,21.74777405651259,64.4019637130029,1.0873887028256295,1.0116236803876315,B,1260,Correct
2,new_learn,8,758,A,54.27043771207427,43.87866933778484,2.7135218856037135,0.6892445262044029,D,2494,Incorrect
2,new_learn,8,759,A,34.185131748126295,31.76194685290265,1.7092565874063148,0.49891549448394207,C,1550,Incorrect
2,new_learn,8,760,B,37.4330949813984,42.341531410839956,1.8716547490699198,0.6650992201101814,C,1165,Incorrect
2,new_learn,8,761,D,83.02666663583352,56.86588663690058,4.151333331791676,0.8932472584917843,D,1398,Correct
2,new_learn,8,762,B,20.805595038818673,25.83651132174754,1.0402797519409335,0.4058389708139579,B,1620,Correct
2,new_learn,8,763,A,51.37579914971926,46.449601850978084,2.568789957485963,0.7296286396860179,A,1668,Correct
2,new_learn,8,764,A,50.444164191274126,10.57576266904173,2.5222082095637064,0.1661236915358534,A,1152,Correct
2,new_learn,8,765,B,25.996356934976014,73.60373247587194,1.2998178467488006,1.1561647261149388,B,1213,Correct
2,new_learn,8,766,B,25.922763077102726,52.89416125236896,1.2961381538551362,0.830859542041181,B,1165,Correct
2,new_learn,8,767,C,23.442816072439552,72.60393341883359,1.1721408036219776,1.1404599192516505,B,693,Incorrect
2,new_learn,8,768,C,37.47819629608628,55.984748824580635,1.873909814804314,0.8794063781018617,B,2607,Incorrect
2,new_learn,8,769,B,35.844997535212045,45.86868274634346,1.792249876760602,0.7205035837287675,D,1625,Incorrect
2,new_learn,8,770,D,95.06681408704212,62.74981877858272,4.753340704352106,0.9856718484444317,C,1638,Incorrect
2,new_learn,8,771,B,19.53947848478299,60.39886138075273,0.9769739242391495,0.9487430959948052,B,1398,Correct
2,new_learn,8,772,C,50.40639224738064,63.046822368462486,2.5203196123690317,0.9903371699247119,A,2635,Incorrect
2,new_learn,8,773,C,31.828059104238815,79.22649121322969,1.5914029552119409,1.2444868138258938,C,828,Correct
2,new_learn,8,774,B,21.384141428009595,59.22023416386557,1.0692070714004798,0.9302292629653368,C,1519,Incorrect
2,new_learn,8,775,A,34.26879025464396,11.99137885041003,1.713439512732198,0.1883601385143008,A,1141,Correct
2,new_learn,8,776,A,58.8575479452736,21.184627311986763,2.94287739726368,0.3327673476618765,A,972,Correct
2,new_learn,8,777,A,31.645946784887748,25.991924695620334,1.5822973392443873,0.40828019838209983,A,997,Correct
2,new_learn,8,778,D,81.52565090744879,51.62192373373375,4.07628254537244,0.8108752818303526,D,957,Correct
2,new_learn,8,779,B,20.217485464038646,39.45990007396194,1.0108742732019322,0.6198346609187307,B,879,Correct
2,new_learn,8,780,D,101.23574697294745,54.018456781413086,5.061787348647373,0.8485199349137255,D,1293,Correct
2,new_learn,8,781,A,46.53651111725888,37.389549149284775,2.3268255558629445,0.5873136646421377,B,935,Incorrect
2,new_learn,8,782,B,27.59140949460908,55.40581783411093,1.379570474730454,0.8703125513688862,A,1021,Incorrect
2,new_learn,8,783,C,32.03084940150825,81.45448801891905,1.6015424700754124,1.2794841058107695,B,1405,Incorrect
2,new_learn,8,784,A,39.65201652791474,41.492663766345544,1.9826008263957369,0.6517652383311128,C,3077,Incorrect
2,new_learn,8,785,B,32.04327515291258,72.13829182776098,1.602163757645629,1.1331456382430527,B,1192,Correct
2,new_learn,8,786,D,59.13342402816554,47.86347758464975,2.956671201408277,0.7518377477759769,D,1062,Correct
2,new_learn,8,787,C,25.878976174884116,75.64030501600158,1.2939488087442057,1.1881551327678086,B,1077,Incorrect
2,new_learn,8,788,A,74.99233318471889,18.37935303517243,3.749616659235944,0.28870220236515487,D,974,Incorrect
2,new_learn,8,789,A,68.47628998576832,10.955969138457428,3.4238144992884156,0.17209596079167178,C,1580,Incorrect
2,new_learn,8,790,D,82.54229727164423,47.6450975445447,4.127114863582211,0.7484074421275537,D,1239,Correct
2,new_learn,8,791,D,85.54042376550808,42.305760126095564,4.277021188275404,0.6645373260833692,D,1598,Correct
2,new_learn,8,792,C,41.647376924858776,84.54465897437512,2.0823688462429386,1.3280243976707562,A,1501,Incorrect
2,new_learn,8,793,D,70.09745019698022,28.432946822969694,3.5048725098490108,0.4466236842947542,D,1437,Correct
2,new_learn,8,794,B,22.90356247072023,66.123378394079,1.1451781235360117,1.0386635989668833,B,1493,Correct
2,new_learn,8,795,B,34.376879987331414,55.98262942089978,1.7188439993665707,0.8793730865866928,B,1638,Correct
2,new_learn,8,796,C,73.51471127469966,85.31409454593984,3.675735563734983,1.340110663365948,C,1620,Correct
2,new_learn,8,797,A,60.704630785572725,37.710982559234346,3.0352315392786364,0.5923627288387172,C,1590,Incorrect
2,new_learn,8,798,B,24.03096960554884,40.92194833766938,1.201548480277442,0.6428004613410158,C,1037,Incorrect
2,new_learn,8,799,C,49.11767684432503,49.14389295994796,2.455883842216252,0.7719504654588785,D,976,Incorrect
2,new_learn,8,800,C,42.64421002381496,60.90261082287522,2.132210501190748,0.9566559737279151,B,812,Incorrect
2,new_learn,8,801,A,35.180326144711294,17.848091046772943,1.759016307235565,0.2803571585657182,C,905,Incorrect
2,new_learn,8,802,C,48.41583714962641,67.13553737312266,2.4207918574813205,1.0545625550310256,C,2323,Correct
2,new_learn,8,803,C,63.71297226081746,96.2227791059704,3.1856486130408728,1.5114638797365505,A,1023,Incorrect
2,new_learn,8,804,D,65.35798926974824,55.452059766076,3.2678994634874123,0.8710389179376324,A,782,Incorrect
2,new_learn,8,805,B,49.504665583423595,44.26959954245011,2.4752332791711797,0.6953852434996166,C,2206,Incorrect
2,new_learn,8,806,D,70.38820533409088,25.14376029276099,3.5194102667045444,0.39495726309680335,C,3669,Incorrect
2,new_learn,8,807,D,87.00612467546762,29.013888789007687,4.350306233773381,0.45574909935808905,D,4533,Correct
2,new_learn,8,808,A,43.09570807287918,12.43988113381291,2.1547854036439587,0.1954051959075845,B,1861,Incorrect
2,new_learn,8,809,B,13.633830563282897,61.231129079670986,0.6816915281641448,0.9618163264385137,B,1686,Correct
2,new_learn,8,810,B,21.944262024337554,52.65067158488758,1.0972131012168775,0.8270348152882584,B,831,Correct
2,new_learn,8,811,C,66.18408257030734,63.761910274463204,3.309204128515367,1.0015697444855258,B,963,Incorrect
2,new_learn,8,812,D,73.85496432398584,64.13219458300907,3.6927482161992917,1.0073861568028621,C,1632,Incorrect
2,new_learn,8,813,A,69.72148695442607,27.05101786093888,3.486074347721303,0.42491639492025934,C,1605,Incorrect
2,new_learn,8,814,B,4.940371156424639,56.517822912051145,0.24701855782123197,0.8877798862869438,B,973,Correct
2,new_learn,8,815,C,47.054499215158536,60.72660555571661,2.352724960757927,0.9538912894564221,C,2355,Correct
2,new_learn,8,816,D,88.2329027665714,29.094372095997738,4.41164513832857,0.4570133281879718,C,1597,Incorrect
2,new_learn,8,817,D,58.77341950271179,54.0121769869719,2.9386709751355897,0.848421292133313,D,1023,Correct
2,new_learn,8,818,A,35.179248492160184,18.912847302967567,1.7589624246080091,0.2970823107273422,D,1140,Incorrect
2,new_learn,8,819,A,41.03049387763059,12.805016753453478,2.0515246938815297,0.2011407328087183,D,1510,Incorrect
2,new_learn,8,820,D,76.40996940498809,58.84397991391592,3.8204984702494045,0.924319075027718,D,887,Correct
2,new_learn,8,821,A,45.34319388190206,11.990403308391405,2.267159694095103,0.18834481473610593,D,1390,Incorrect
2,new_learn,8,822,C,23.671959500142272,79.20513759358795,1.1835979750071135,1.2441513919529232,B,1838,Incorrect
2,new_learn,8,823,C,45.25904885493666,72.90058724763755,2.262952442746833,1.1451197466977994,B,2579,Incorrect
2,new_learn,8,824,D,68.65041824727183,27.607713218864344,3.4325209123635916,0.43366094515399023,D,1069,Correct
2,new_learn,8,825,D,65.15321694047334,53.84040684234431,3.2576608470236668,0.8457231330109726,D,1036,Correct
2,new_learn,8,826,B,17.659212867699555,65.35361876362994,0.8829606433849777,1.0265722429666393,B,780,Correct
2,new_learn,8,827,A,67.463092090676,23.062108823668737,3.3731546045338003,0.3622587582836303,D,1935,Incorrect
2,new_learn,8,828,B,16.909403243764377,28.872804904923452,0.8454701621882188,0.45353295888919437,B,1125,Correct
2,new_learn,8,829,B,8.4211595101021,63.89167225084449,0.42105797550510504,1.0036080408440995,B,1391,Correct
2,new_learn,8,830,A,59.04152957282562,42.50219631199513,2.9520764786412808,0.6676229384759754,C,1333,Incorrect
2,new_learn,8,831,B,7.649771699203978,36.76068709644688,0.38248858496019894,0.5774355226155531,B,783,Correct
2,new_learn,8,832,D,88.29104650938896,31.498560061648202,4.414552325469447,0.49477822444165426,D,1508,Correct
2,new_learn,8,833,D,89.61857125156212,65.78541248998519,4.4809285625781055,1.0333548429595585,D,1294,Correct
2,new_learn,8,834,C,69.46122088844623,70.4599754586255,3.4730610444223116,1.106782706364675,D,927,Incorrect
2,new_learn,8,835,B,14.947872832077971,67.3965686454104,0.7473936416038985,1.0586628246679075,D,1573,Incorrect
2,new_learn,8,836,C,73.43972679759995,73.06693076640181,3.6719863398799975,1.14773266458041,D,1199,Incorrect
2,new_learn,8,837,D,57.20796562924967,62.091675321969234,2.8603982814624835,0.9753337552029058,C,949,Incorrect
2,new_learn,8,838,C,45.30460436723753,60.573966697707746,2.2652302183618764,0.9514936438815572,B,726,Incorrect
2,new_learn,8,839,C,53.4450848002593,73.3533392560345,2.672254240012965,1.1522315586151888,C,869,Correct
2,new_learn,8,840,C,70.30742690833112,74.7132784316547,3.5153713454165563,1.1735934332324758,C,732,Correct
2,new_learn,8,841,A,32.96270499719611,27.71231789918582,1.6481352498598056,0.43530407163013557,C,1302,Incorrect
2,new_learn,8,842,B,39.41427980949797,53.363406401028016,1.9707139904748985,0.8382304275999808,D,829,Incorrect
2,new_learn,8,843,C,63.5910053017967,63.71520209266184,3.1795502650898353,1.0008360540814774,D,2278,Incorrect
2,new_learn,8,844,B,0.4084759807355951,58.99532527387606,0.020423799036779756,0.9266964023827465,B,966,Correct
2,new_learn,8,845,B,26.723723583249296,33.94402542313904,1.3361861791624647,0.5331915045129939,B,1181,Correct
2,new_learn,8,846,A,54.949093755557456,24.11886672435346,2.7474546877778727,0.37885827257070065,A,2935,Correct
2,new_learn,8,847,D,79.18787690115771,39.803770730467676,3.9593938450578854,0.6252361685600485,C,1678,Incorrect
2,new_learn,8,848,B,22.557884895072306,56.99123818560956,1.1278942447536153,0.8952162760144854,A,773,Incorrect
2,new_learn,8,849,B,21.4348761198892,71.66874358843341,1.07174380599446,1.125769991747165,A,916,Incorrect
2,new_learn,8,850,A,35.74805348162681,42.99430518858662,1.7874026740813407,0.6753529666333062,C,1229,Incorrect
2,new_learn,8,851,D,74.70806443973832,32.76483160635209,3.735403221986916,0.514668771353112,D,789,Correct
2,new_learn,8,852,D,53.575299825365306,37.95115273237999,2.678764991268265,0.5961353130965459,D,3014,Correct
2,new_learn,8,853,D,76.07684583926455,36.076187402611104,3.8038422919632273,0.5666834265678584,D,924,Correct
2,new_learn,8,854,A,30.00447306342801,36.99677727958955,1.5002236531714004,0.5811440185402815,D,1006,Incorrect
2,new_learn,8,855,C,62.99128009158046,54.14388500470754,3.149564004579023,0.8504901568379988,D,958,Incorrect
2,new_learn,8,856,A,24.388923543985626,17.672363111686444,1.2194461771992813,0.2775968306162269,A,975,Correct
2,new_learn,8,857,A,42.2899265063186,38.92043321437892,2.11449632531593,0.611360735304125,A,694,Correct
2,new_learn,8,858,B,19.72664475539427,25.732085987149905,0.9863322377697133,0.40419866149385497,B,1397,Correct
2,new_learn,8,859,C,24.799017512143198,79.59187586050075,1.2399508756071598,1.2502262624438996,B,1319,Incorrect
2,new_learn,8,860,C,51.83911616886915,62.88839367661263,2.591955808443457,0.9878485778525451,D,3180,Incorrect
2,new_learn,8,861,D,85.39772148605336,40.05948203861645,4.269886074302668,0.6292528723956485,D,2383,Correct
2,new_learn,8,862,D,81.07326029973855,49.64957229709092,4.0536630149869275,0.7798936579120808,D,1062,Correct
2,new_learn,8,863,D,72.22238921389248,52.654723627988744,3.611119460694624,0.8270984646324516,D,933,Correct
2,new_learn,8,864,C,37.25212344020948,98.45990261291786,1.862606172010474,1.5466045336095464,A,2084,Incorrect
2,new_learn,8,865,A,36.584259694409596,18.524494657102004,1.8292129847204797,0.29098208163107514,B,3735,Incorrect
2,new_learn,8,866,A,38.561348580238544,3.700819174932885,1.928067429011927,0.05813233166116695,C,1262,Incorrect
2,new_learn,8,867,B,20.302583456746767,65.47335061928698,1.0151291728373382,1.0284529865573036,B,1363,Correct
2,new_learn,8,868,D,79.43034725126346,33.73252096387101,3.971517362563173,0.5298692002358043,D,1173,Correct
2,new_learn,8,869,D,69.23071754621985,34.65252213516171,3.4615358773109928,0.5443205448409086,B,927,Incorrect
2,new_learn,8,870,B,34.9408979309988,51.50324474174263,1.74704489654994,0.8090110765834788,D,1029,Incorrect
2,new_learn,8,871,A,59.485815929407934,31.103773445047402,2.9742907964703966,0.4885769307694111,D,430,Incorrect
2,new_learn,8,872,C,41.43863851642867,52.85077259076251,2.0719319258214335,0.8301779945384214,D,1309,Incorrect
2,new_learn,8,873,C,69.13240886415372,57.683902006698446,3.4566204432076857,0.9060966138731867,D,871,Incorrect
2,new_learn,8,874,A,47.860467238881924,26.95233865808408,2.3930233619440964,0.42336634562650566,C,859,Incorrect
2,new_learn,8,875,D,84.54229552183914,61.61862872487181,4.227114776091957,0.9679031566316716,D,1236,Correct
2,new_learn,8,876,A,40.15224589039329,19.548274824495984,2.0076122945196646,0.30706358289495445,A,1297,Correct
2,new_learn,8,877,A,60.78483849514859,41.200050811006584,3.03924192475743,0.6471688847769224,A,1220,Correct
2,new_learn,8,878,C,43.287697483060484,79.71197981752067,2.164384874153024,1.252112850989104,C,2670,Correct
2,new_learn,8,879,C,32.496881180699326,65.14044097110843,1.6248440590349662,1.023223654032169,C,1028,Correct
2,new_learn,8,880,D,60.17249996142942,27.879382120355988,3.008624998071471,0.437928310279665,D,2383,Correct
2,new_learn,8,881,C,42.527416082826655,82.64672113056719,2.1263708041413327,1.298211659735371,C,1234,Correct
2,new_learn,8,882,A,63.771255531366826,34.351806693545456,3.1885627765683413,0.5395969177298954,D,1463,Incorrect
2,new_learn,8,883,C,39.82694531421503,73.92178123959783,1.9913472657107516,1.1611606244129618,C,853,Correct
2,new_learn,8,884,A,32.02494059897863,8.006511015854283,1.6012470299489314,0.12576598094146785,A,1739,Correct
2,new_learn,8,885,A,43.986026412674164,2.5226442704318863,2.199301320633708,0.039625603538045985,C,1119,Incorrect
2,new_learn,8,886,B,40.70060669905885,48.015788908671695,2.0350303349529426,0.7542302484590064,D,1309,Incorrect
2,new_learn,8,887,B,37.63363489440538,68.00686819878187,1.8816817447202692,1.0682493876347123,C,1125,Incorrect
2,new_learn,8,888,B,17.32742688715521,33.87330860309377,0.8663713443577605,0.5320806873012967,B,982,Correct
2,new_learn,8,889,D,74.51662281076739,38.0787215554102,3.7258311405383693,0.5981391594828399,C,1455,Incorrect
2,new_learn,8,890,B,46.57753248927246,56.69827833168583,2.328876624463623,0.8906144733900676,D,1628,Incorrect
2,new_learn,8,891,C,46.65179420519384,79.8512876936213,2.3325897102596915,1.2543010939898285,A,2207,Incorrect
2,new_learn,8,892,C,74.53219847203475,64.71889410936315,3.726609923601737,1.016602011412155,C,1068,Correct
2,new_learn,8,893,D,100.28561715607658,43.59892230517571,5.014280857803829,0.684850270091861,C,932,Incorrect
2,new_learn,8,894,B,30.854442203580472,46.569517776866675,1.5427221101790236,0.731512274645118,A,983,Incorrect
2,new_learn,8,895,A,42.59561132558172,28.63577028711994,2.129780566279086,0.4498096278195044,C,901,Incorrect
2,new_learn,8,896,A,37.028087753345375,44.99394270775928,1.8514043876672688,0.7067631993336831,D,1342,Incorrect
2,new_learn,8,897,A,37.23458646757753,40.498767130825605,1.8617293233788763,0.6361531464882275,B,3278,Incorrect
2,new_learn,8,898,D,72.47676562626152,25.02927228198761,3.623838281313076,0.3931588896289546,D,796,Correct
