experiment,condition,subject,trial,cat,x,y,xt,yt,resp,rt,fb
2,relearn,17,0,C,79.07265095509212,24.569377383862168,3.953632547754606,0.385934877462083,C,7288,Correct
2,relearn,17,1,A,44.192572647946676,48.33166570223345,2.209628632397334,0.7591920295294717,C,878,Incorrect
2,relearn,17,2,B,64.08874600566479,71.24495195143916,3.2044373002832396,1.1191130882799951,C,5236,Incorrect
2,relearn,17,3,A,33.48994650870898,50.57536462189746,1.6744973254354492,0.794435969743891,A,3133,Correct
2,relearn,17,4,D,50.11404483473917,34.279633202799815,2.5057022417369583,0.5384632191883433,B,2782,Incorrect
2,relearn,17,5,D,57.59964171718831,17.092822910072037,2.8799820858594156,0.2684934344169681,A,3237,Incorrect
2,relearn,17,6,A,20.83671027074535,39.70111942926657,1.0418355135372677,0.6236237256913743,A,5446,Correct
2,relearn,17,7,C,63.599815069523,61.177705564354696,3.1799907534761496,0.9609771518222806,C,725,Correct
2,relearn,17,8,A,14.063361876553019,59.60619283751858,0.703168093827651,0.9362918876340245,A,710,Correct
2,relearn,17,9,C,89.24341117738527,52.11060074669905,4.462170558869263,0.8185514023999025,C,628,Correct
2,relearn,17,10,B,59.77104313738482,70.00240831675134,2.988552156869241,1.0995952585074953,A,1423,Incorrect
2,relearn,17,11,B,66.52596796176255,85.79363162259502,3.3262983980881273,1.3476432141516674,C,636,Incorrect
2,relearn,17,12,B,33.34678377251368,69.58032892176527,1.667339188625684,1.092965250874896,A,3440,Incorrect
2,relearn,17,13,B,39.709075096519484,94.55943720253666,1.9854537548259743,1.4853361662153728,B,1018,Correct
2,relearn,17,14,B,33.030815705915,70.46735469149041,1.6515407852957502,1.1068986190834627,B,2487,Correct
2,relearn,17,15,C,69.18853992671302,68.19143562411152,3.459426996335651,1.0711485659722502,C,869,Correct
2,relearn,17,16,A,7.753755727665062,43.56456320149649,0.38768778638325313,0.684310558553348,A,1783,Correct
2,relearn,17,17,D,32.45620190295871,35.64837319437336,1.6228100951479354,0.5599633366993533,D,1819,Correct
2,relearn,17,18,B,42.989807310268375,88.28519569849333,2.1494903655134188,1.3867806111356191,C,1702,Incorrect
2,relearn,17,19,B,71.01318767615066,72.75032789686202,3.5506593838075333,1.1427594783351513,C,717,Incorrect
2,relearn,17,20,C,60.6666133725125,60.15236655808355,3.0333306686256254,0.9448711643745782,C,3751,Correct
2,relearn,17,21,B,67.44076813644851,63.87779465251949,3.372038406822426,1.003390052039363,D,1459,Incorrect
2,relearn,17,22,C,71.89257447582906,28.62170275170457,3.594628723791453,0.44958865548992927,B,1406,Incorrect
2,relearn,17,23,B,56.15671408409229,94.13606735709067,2.8078357042046145,1.4786858882343499,A,886,Incorrect
2,relearn,17,24,B,40.238810371498126,84.39940958737289,2.011940518574906,1.325742825635033,B,2711,Correct
2,relearn,17,25,A,6.6464595672716875,56.4284638865038,0.33232297836358443,0.8863762379959864,B,950,Incorrect
2,relearn,17,26,D,71.09644219474762,36.86406249877291,3.554822109737381,0.5790593396380997,C,996,Incorrect
2,relearn,17,27,D,65.09310569097937,35.438388531411654,3.2546552845489685,0.5566649053267181,C,1608,Incorrect
2,relearn,17,28,A,30.31804851220396,49.85065164241979,1.515902425610198,0.7830522048824498,A,5444,Correct
2,relearn,17,29,D,65.00163651130052,18.46413530638145,3.2500818255650255,0.29003395916707947,D,1192,Correct
2,relearn,17,30,C,53.667215463894074,48.03958186670003,2.6833607731947033,0.7546039873697514,D,1092,Incorrect
2,relearn,17,31,B,32.49595313925518,72.26730195696392,1.6247976569627587,1.1351721246137658,A,999,Incorrect
2,relearn,17,32,C,63.6580590083907,67.69417891967605,3.1829029504195354,1.0633376759242368,C,2052,Correct
2,relearn,17,33,D,48.34441353652384,35.56052958205346,2.417220676826192,0.5585834924637084,D,1109,Correct
2,relearn,17,34,D,46.262390834532304,3.2303512489555537,2.3131195417266155,0.0507422387611669,B,1237,Incorrect
2,relearn,17,35,B,41.942135283669586,91.83387704344034,2.0971067641834793,1.4425231673517027,A,856,Incorrect
2,relearn,17,36,D,26.338795410957726,20.125354843719165,1.3169397705478862,0.31612833463957946,B,757,Incorrect
2,relearn,17,37,C,82.61508053197802,66.23558900715467,4.130754026598901,1.0404261991553498,C,620,Correct
2,relearn,17,38,D,67.80521990135338,21.471370845151164,3.390260995067669,0.33727150454814486,C,687,Incorrect
2,relearn,17,39,A,36.286031503661576,40.85568043122122,1.8143015751830789,0.6417595275006842,A,708,Correct
2,relearn,17,40,D,37.46642573634015,4.022677556478566,1.8733212868170073,0.06318807129596803,B,544,Incorrect
2,relearn,17,41,A,13.358135232686102,37.88302523223345,0.6679067616343051,0.5950651688267069,A,803,Correct
2,relearn,17,42,A,9.809758941210934,42.23315947983136,0.49048794706054666,0.6633969177986216,A,734,Correct
2,relearn,17,43,B,49.04973755905163,75.44847629319881,2.4524868779525817,1.185141894236285,C,1703,Incorrect
2,relearn,17,44,B,27.74881396959024,88.79914565092123,1.387440698479512,1.394853718109921,A,950,Incorrect
2,relearn,17,45,D,28.407456454610692,39.32492561229896,1.4203728227305346,0.6177144870328175,B,1454,Incorrect
2,relearn,17,46,D,65.20940658070188,24.121209106528333,3.2604703290350936,0.37889506662386313,C,2652,Incorrect
2,relearn,17,47,D,67.93823028664893,17.531711935330364,3.3969115143324466,0.27538748710443184,D,1532,Correct
2,relearn,17,48,A,29.189180250885663,27.963615391574738,1.4594590125442832,0.43925144340990835,B,1096,Incorrect
2,relearn,17,49,D,27.05221350586497,15.443857859661271,1.3526106752932485,0.2425915519749842,B,909,Incorrect
2,relearn,17,50,B,36.81027057334143,85.56240672809261,1.8405135286670713,1.344011142002188,A,1935,Incorrect
2,relearn,17,51,C,88.07827033647061,38.6564028029038,4.403913516823531,0.6072133552990523,C,1996,Correct
2,relearn,17,52,B,61.831504358584425,90.79252524069,3.091575217929221,1.4261656514850876,C,1413,Incorrect
2,relearn,17,53,D,42.20591399527772,8.543099012325005,2.1102956997638858,0.13419468548005228,D,1941,Correct
2,relearn,17,54,A,20.566666718814034,36.76080242693911,1.0283333359407016,0.5774373342226886,B,3303,Incorrect
2,relearn,17,55,A,43.65518386142054,57.918304884371864,2.182759193071027,0.9097786056655822,B,795,Incorrect
2,relearn,17,56,D,55.37695806825207,3.629752022249672,2.768847903412604,0.05701601143726132,D,944,Correct
2,relearn,17,57,C,75.32793327567677,44.496409206545906,3.7663966637838384,0.6989479613720493,C,1811,Correct
2,relearn,17,58,D,43.963871177533356,41.11080459298836,2.198193558876668,0.6457670084624888,C,1093,Incorrect
2,relearn,17,59,C,79.89922528167281,30.337886412951146,3.9949612640836403,0.4765464054018446,C,686,Correct
2,relearn,17,60,D,42.41206156063291,18.22556282587197,2.120603078031645,0.28628647140649305,D,902,Correct
2,relearn,17,61,A,42.58659828443028,58.661334970692465,2.1293299142215143,0.9214500949684874,D,1468,Incorrect
2,relearn,17,62,D,57.03115967931614,29.36464024286846,2.8515579839658067,0.46125869031151373,A,3446,Incorrect
2,relearn,17,63,B,33.84506076375696,57.27881703057486,1.6922530381878482,0.8997335539478395,B,4517,Correct
2,relearn,17,64,D,75.73755151557243,29.146542284125502,3.7868775757786217,0.45783281558676475,C,746,Incorrect
2,relearn,17,65,D,48.68999908322538,3.298735792242656,2.4344999541612693,0.051816420655216175,D,912,Correct
2,relearn,17,66,B,38.65462881932558,51.130382415576925,1.932731440966279,0.8031541688600661,B,493,Correct
2,relearn,17,67,C,78.08679621412023,76.36050329455969,3.9043398107060114,1.1994679808730395,C,1292,Correct
2,relearn,17,68,A,19.280133873381807,73.55076412736332,0.9640066936690903,1.1553327012422017,A,1077,Correct
2,relearn,17,69,B,50.997134557368874,89.836830900768,2.5498567278684434,1.4111536398982065,B,877,Correct
2,relearn,17,70,B,65.46011726292552,79.37795829226101,3.2730058631462757,1.246866053139621,C,828,Incorrect
2,relearn,17,71,D,49.19795307640458,41.09191217705654,2.4598976538202293,0.6454702470869891,D,623,Correct
2,relearn,17,72,B,63.39648660493585,88.99581043325394,3.1698243302467928,1.397942921286902,D,1016,Incorrect
2,relearn,17,73,D,46.20686700185358,10.593649785463953,2.3103433500926793,0.16640466170358323,A,941,Incorrect
2,relearn,17,74,A,10.626405427711672,49.73243874413805,0.5313202713855837,0.7811953210184424,B,630,Incorrect
2,relearn,17,75,D,48.28047056013028,0.9717257377441335,2.4140235280065143,0.015263832195005461,D,834,Correct
2,relearn,17,76,C,58.064058524040654,44.10876055177279,2.9032029262020327,0.6928587905420034,C,901,Correct
2,relearn,17,77,B,48.73582893083858,54.39299339370318,2.436791446541929,0.8544031422620803,D,792,Incorrect
2,relearn,17,78,A,33.35727886056642,53.91165186392565,1.6678639430283209,0.8468422471929965,A,571,Correct
2,relearn,17,79,C,86.99245808118397,36.343451820173485,4.349622904059198,0.5708816062217581,C,774,Correct
2,relearn,17,80,A,4.77055523067542,53.84059447446015,0.238527761533771,0.845726080329356,B,1047,Incorrect
2,relearn,17,81,A,19.70558370852837,48.43233277295072,0.9852791854264185,0.7607733041785908,A,908,Correct
2,relearn,17,82,B,39.88415094842243,92.12863944112584,1.9942075474211214,1.4471532842673192,D,1199,Incorrect
2,relearn,17,83,B,32.135190172508004,85.51620428978376,1.6067595086254003,1.3432853957983428,A,941,Incorrect
2,relearn,17,84,A,35.667031507157375,27.403203224861063,1.7833515753578688,0.4304485096802583,C,527,Incorrect
2,relearn,17,85,B,46.438206689689764,92.67437044659496,2.321910334484488,1.455725606855409,C,635,Incorrect
2,relearn,17,86,B,45.92333684767397,87.1098723353541,2.2961668423836987,1.368318674919466,A,400,Incorrect
2,relearn,17,87,D,68.03433946385535,31.363576960138918,3.4017169731927677,0.4926579148413526,C,757,Incorrect
2,relearn,17,88,C,73.17497729072689,60.30524528256794,3.658748864536344,0.9472725777632298,C,646,Correct
2,relearn,17,89,B,69.89144760614606,57.61765404958646,3.494572380307303,0.905055993396295,D,516,Incorrect
2,relearn,17,90,C,74.3231564056461,69.43470659977994,3.716157820282305,1.0906778207901568,C,694,Correct
2,relearn,17,91,A,21.18726502173619,67.51252204737904,1.0593632510868096,1.0604842164468247,A,870,Correct
2,relearn,17,92,A,21.379254182264862,25.17237725758555,1.068962709113243,0.39540677732910773,A,1174,Correct
2,relearn,17,93,A,7.568919280066716,34.99164983110139,0.3784459640033358,0.5496475502318733,A,645,Correct
2,relearn,17,94,C,81.10828391868718,25.573229148158386,4.055414195934358,0.4017033441021138,C,655,Correct
2,relearn,17,95,B,39.429381254870755,81.96685069026253,1.9714690627435376,1.2875322798321014,C,1047,Incorrect
2,relearn,17,96,D,31.153285031647517,18.316826226298534,1.5576642515823758,0.2877200335481016,D,684,Correct
2,relearn,17,97,B,28.00000450247925,74.73314684054941,1.4000002251239625,1.1739055254695865,B,1494,Correct
2,relearn,17,98,B,32.326349553184706,87.57678000052974,1.6163174776592353,1.3756528433735686,B,1181,Correct
2,relearn,17,99,B,45.621814066053666,57.34015551371151,2.2810907033026835,0.9006970565878618,D,1135,Incorrect
2,relearn,17,100,A,5.28450378486918,57.254563410683765,0.264225189243459,0.8993525789774756,A,1117,Correct
2,relearn,17,101,A,40.09978307428381,67.1665481141685,2.0049891537141904,1.0550496706122856,C,990,Incorrect
2,relearn,17,102,B,51.49476499388139,59.26105484674123,2.57473824969407,0.9308704727525202,C,752,Incorrect
2,relearn,17,103,D,28.53934131115764,33.901608774807976,1.4269670655578819,0.5325252253590601,B,845,Incorrect
2,relearn,17,104,C,52.62730786878217,48.56719517077023,2.6313653934391086,0.7628917177697672,D,1022,Incorrect
2,relearn,17,105,A,37.535739084125666,40.86126837343189,1.8767869542062834,0.6418473026916728,A,1245,Correct
2,relearn,17,106,B,74.10668281158999,70.39473292856803,3.7053341405794993,1.1057578790990241,C,853,Incorrect
2,relearn,17,107,D,27.625997609901656,21.50693474907976,1.381299880495083,0.3378301410447201,A,637,Incorrect
2,relearn,17,108,A,30.951571486415105,24.493470714211956,1.5475785743207553,0.3847425382834251,B,725,Incorrect
2,relearn,17,109,D,62.364304590002966,24.742582026050776,3.118215229500148,0.3886555696194199,D,1590,Correct
2,relearn,17,110,D,68.79079644950416,28.00878360429089,3.439539822475208,0.43996094403613256,D,917,Correct
2,relearn,17,111,C,85.3340289330901,42.22702376730407,4.266701446654505,0.6633005382516202,D,1334,Incorrect
2,relearn,17,112,C,60.81752421995809,68.77605754346261,3.0408762109979044,1.0803317856070551,D,1368,Incorrect
2,relearn,17,113,D,35.19320218940994,5.669268721177776,1.759660109470497,0.08905266482839252,D,1093,Correct
2,relearn,17,114,B,31.247285672355037,80.22752850557089,1.5623642836177518,1.260211070843836,A,2149,Incorrect
2,relearn,17,115,B,61.23771175796411,64.3644508136329,3.0618855878982054,1.0110344291422535,C,1101,Incorrect
2,relearn,17,116,D,59.16068319659934,14.022443618376796,2.9580341598299666,0.2202640292843481,B,2206,Incorrect
2,relearn,17,117,A,30.670565758944964,65.05942996922533,1.533528287947248,1.0219511361902898,A,1014,Correct
2,relearn,17,118,D,57.99676647427105,9.487706476278612,2.8998383237135523,0.14903254482646597,D,2946,Correct
2,relearn,17,119,B,69.65238612996862,57.991243418055035,3.4826193064984308,0.9109243214734957,C,1063,Incorrect
2,relearn,17,120,D,68.0251966472658,5.692648794400306,3.4012598323632903,0.08941991815977397,C,804,Incorrect
2,relearn,17,121,B,57.4144722880772,65.27112153063703,2.8707236144038597,1.0252763794610793,D,655,Incorrect
2,relearn,17,122,D,65.73508285816398,9.362696215089043,3.2867541429081992,0.14706888823558348,B,1196,Incorrect
2,relearn,17,123,C,72.03125039285183,44.70816828390671,3.601562519642591,0.7022742651808874,C,838,Correct
2,relearn,17,124,B,35.554762713852384,57.50070557769848,1.777738135692619,0.903218971095636,A,781,Incorrect
2,relearn,17,125,D,61.22806457040062,19.64694497153185,3.061403228520031,0.30861348994023685,C,1320,Incorrect
2,relearn,17,126,B,49.24752182212286,63.7620769983903,2.462376091106143,1.0015723633788485,D,4821,Incorrect
2,relearn,17,127,A,11.420073225523835,68.42274661113913,0.5710036612761917,1.074781990459953,A,3974,Correct
2,relearn,17,128,C,54.914363389492344,39.95055609140069,2.7457181694746176,0.6275418676178569,B,3623,Incorrect
2,relearn,17,129,B,73.50205573866457,86.69399715044469,3.6751027869332287,1.3617861227908574,C,556,Incorrect
2,relearn,17,130,C,60.04012955623314,42.23745673384228,3.0020064778116566,0.6634644189067782,D,1639,Incorrect
2,relearn,17,131,D,38.467290184863614,43.07888783172584,1.9233645092431806,0.6766815876848431,B,3037,Incorrect
2,relearn,17,132,D,54.60349980806414,33.97601165661149,2.7301749904032073,0.5336939430934591,C,677,Incorrect
2,relearn,17,133,B,68.81794330873595,77.0835779412932,3.4408971654367972,1.2108260108639148,C,718,Incorrect
2,relearn,17,134,D,55.126014802454996,19.048749569480997,2.7563007401227497,0.2992170585377662,D,789,Correct
2,relearn,17,135,C,67.47679653096893,58.183743539479224,3.3738398265484464,0.9139481063099025,D,1360,Incorrect
2,relearn,17,136,C,70.8889333859471,71.0387784118987,3.544446669297355,1.1158745218940707,C,755,Correct
2,relearn,17,137,D,71.86416695805433,13.857214105458208,3.5932083479027166,0.21766861016464184,C,950,Incorrect
2,relearn,17,138,B,34.76731006505333,75.39151453219269,1.7383655032526664,1.1842471409867235,B,1173,Correct
2,relearn,17,139,D,38.92020180267973,45.26436158870452,1.9460100901339865,0.7110109291825306,B,661,Incorrect
2,relearn,17,140,A,14.358648389392282,42.97212756485062,0.7179324194696142,0.6750046013342907,B,688,Incorrect
2,relearn,17,141,C,68.83629586594994,39.20234740459978,3.4418147932974965,0.6157890330488278,C,1204,Correct
2,relearn,17,142,D,65.69812290339397,46.33787561530302,3.284906145169698,0.7278736480799679,D,2356,Correct
2,relearn,17,143,C,87.40225516616762,60.23323055312893,4.370112758308381,0.9461413730384506,C,1198,Correct
2,relearn,17,144,A,31.443418524318066,44.420577666547125,1.5721709262159032,0.6977568023271964,B,2829,Incorrect
2,relearn,17,145,A,5.384007092220571,34.14437747734044,0.26920035461102854,0.5363386272210476,A,670,Correct
2,relearn,17,146,D,38.56129754218794,34.21350871049796,1.9280648771093967,0.537424538092154,A,773,Incorrect
2,relearn,17,147,C,62.37841069289773,55.09632837392988,3.1189205346448863,0.865451102296545,C,869,Correct
2,relearn,17,148,C,77.86986155092677,39.24826987518459,3.8934930775463386,0.6165103815299475,C,869,Correct
2,relearn,17,149,B,42.29007784532244,63.886690745236635,2.1145038922661223,1.0035297915369923,D,1061,Incorrect
2,relearn,17,150,D,73.23817287865504,28.016948924485394,3.661908643932752,0.44008920458581885,C,879,Incorrect
2,relearn,17,151,A,38.74324525948114,32.76287596415959,1.937162262974057,0.5146380521973868,B,1004,Incorrect
2,relearn,17,152,C,88.95527630349234,40.99428289511127,4.447763815174617,0.6439366899123163,C,709,Correct
2,relearn,17,153,D,44.94226114169575,43.48501238941307,2.2471130570847877,0.6830609773192062,A,693,Incorrect
2,relearn,17,154,B,47.29349110401727,55.386425502503144,2.3646745552008634,0.8700079373363111,C,654,Incorrect
2,relearn,17,155,B,69.4018206238896,85.27630931437135,3.47009103119448,1.3395171343363994,C,877,Incorrect
2,relearn,17,156,D,30.565779276116572,14.558555997601541,1.5282889638058288,0.22868526284470309,D,1224,Correct
2,relearn,17,157,D,52.14210126813735,23.808172787369337,2.607105063406868,0.37397790362097966,D,717,Correct
2,relearn,17,158,A,2.2634179659913656,52.000232871771395,0.11317089829956828,0.8168177478745774,A,942,Correct
2,relearn,17,159,D,48.63851802501068,12.104952880432695,2.4319259012505343,0.19014415520608982,D,1253,Correct
2,relearn,17,160,C,76.97916800786388,36.663116480909196,3.8489584003931943,0.5759028869706561,C,1014,Correct
2,relearn,17,161,A,22.983892898592494,51.342428094524415,1.1491946449296249,0.8064849745961007,B,1141,Incorrect
2,relearn,17,162,C,81.53675697760222,58.593952891028415,4.076837848880111,0.9203916597362064,C,896,Correct
2,relearn,17,163,B,34.72088549079815,75.8224446894062,1.7360442745399076,1.1910161760672848,A,1042,Incorrect
2,relearn,17,164,D,36.32391055835369,4.087068397557559,1.8161955279176845,0.06419952026242919,D,855,Correct
2,relearn,17,165,C,65.9674052218861,64.27389161230516,3.298370261094305,1.0096119285342227,C,719,Correct
2,relearn,17,166,A,21.913775986676768,54.816345057228325,1.0956887993338384,0.8610531346421584,A,2830,Correct
2,relearn,17,167,D,62.551715325191026,32.88692396159396,3.127585766259551,0.5165865935845486,C,917,Incorrect
2,relearn,17,168,A,37.13482324970808,33.36764691925823,1.8567411624854038,0.5241377721455986,A,1093,Correct
2,relearn,17,169,A,10.160923885339797,55.608224310084296,0.5080461942669898,0.8734919448586709,A,773,Correct
2,relearn,17,170,B,57.33847915804995,95.9208440616957,2.8669239579024977,1.506721095151777,C,987,Incorrect
2,relearn,17,171,C,75.53506617379834,54.83870138023829,3.776753308689917,0.8614043069428052,C,886,Correct
2,relearn,17,172,D,63.413890076280836,29.1400202905477,3.1706945038140417,0.45773036835121084,D,1054,Correct
2,relearn,17,173,C,78.00834910070338,30.35605968972195,3.9004174550351696,0.4768318705658187,D,1165,Incorrect
2,relearn,17,174,D,49.51698054382368,45.267905507527956,2.4758490271911837,0.7110665969292338,C,591,Incorrect
2,relearn,17,175,C,92.18831835073345,53.45696815519292,4.609415917536673,0.8397000921976878,C,670,Correct
2,relearn,17,176,C,99.56863717069999,54.48748508252179,4.978431858534999,0.8558874142391695,C,662,Correct
2,relearn,17,177,C,74.83728971832235,40.71489107715194,3.741864485916118,0.6395480134984458,C,550,Correct
2,relearn,17,178,A,26.944504747853813,50.06768355323148,1.3472252373926907,0.7864613341654528,A,1078,Correct
2,relearn,17,179,B,31.80854056303708,87.85995002648056,1.590427028151854,1.3801008677397886,A,699,Incorrect
2,relearn,17,180,A,2.133769801082938,57.3641684549987,0.10668849005414689,0.9010742509875563,A,1191,Correct
2,relearn,17,181,C,79.89749396358667,46.689496255918066,3.9948746981793333,0.7333968921870018,C,797,Correct
2,relearn,17,182,B,33.74910360735591,63.798862185737846,1.6874551803677957,1.0021501837505082,A,1887,Incorrect
2,relearn,17,183,A,9.804501230732932,54.703073925995724,0.4902250615366466,0.8592738758734376,A,1005,Correct
2,relearn,17,184,B,28.739147940753003,90.60941410976912,1.4369573970376501,1.4232893485666303,B,1213,Correct
2,relearn,17,185,C,65.51423253742628,52.64621699802868,3.275711626871314,0.8269648428015048,C,998,Correct
2,relearn,17,186,A,15.005385822253489,68.21703066962145,0.7502692911126745,1.0715506120069618,B,1171,Incorrect
2,relearn,17,187,A,10.057343048074378,57.298234909782906,0.5028671524037189,0.900038569281181,A,798,Correct
2,relearn,17,188,C,54.61455096088123,45.242399263940285,2.7307275480440616,0.7106659457918554,C,727,Correct
2,relearn,17,189,B,43.46162685845886,90.3891979509771,2.1730813429229427,1.4198302012333164,D,965,Incorrect
2,relearn,17,190,B,25.69462730401239,72.0092862658418,1.2847313652006196,1.1311192236150647,A,903,Incorrect
2,relearn,17,191,C,84.7457296765276,64.15589694004763,4.23728648382638,1.0077584725565876,C,724,Correct
2,relearn,17,192,D,58.01462279296747,10.096964155665908,2.9007311396483737,0.15860274207499744,D,950,Correct
2,relearn,17,193,C,94.05208184623157,31.186466630486763,4.702604092311578,0.4898758722888022,C,799,Correct
2,relearn,17,194,B,58.79184344780781,83.79627713380059,2.9395921723903906,1.3162688432086114,D,1989,Incorrect
2,relearn,17,195,A,-0.8124542673070891,52.9032176544124,-0.04062271336535446,0.8310017996718192,A,884,Correct
2,relearn,17,196,D,41.518425563282456,44.221213701051354,2.0759212781641225,0.6946252004802361,A,1420,Incorrect
2,relearn,17,197,A,3.651404500555394,39.95167016065974,0.1825702250277697,0.6275593673768558,A,870,Correct
2,relearn,17,198,D,52.686077279973716,23.146211519570823,2.6343038639986855,0.3635798403415957,C,876,Incorrect
2,relearn,17,199,C,93.40918655730714,54.586799023008545,4.670459327865356,0.8574474339683306,C,799,Correct
2,relearn,17,200,D,34.34133701608758,40.67546760210544,1.717066850804379,0.6389287510005205,A,1026,Incorrect
2,relearn,17,201,D,61.073295899670995,6.283197599211974,3.0536647949835496,0.09869623709368681,C,565,Incorrect
2,relearn,17,202,C,83.71353923057656,54.21493153755868,4.185676961528828,0.8516061531663398,C,791,Correct
2,relearn,17,203,D,57.107801844868476,29.356295892158343,2.855390092243424,0.4611276175570644,D,717,Correct
2,relearn,17,204,C,98.85345264779262,44.88581601449113,4.942672632389631,0.7050647492075421,C,1408,Correct
2,relearn,17,205,A,13.017504906357656,62.533106742601916,0.6508752453178828,0.9822677437435225,A,852,Correct
2,relearn,17,206,A,17.46934767550939,41.27049585119414,0.8734673837754695,0.6482754328805977,A,791,Correct
2,relearn,17,207,A,23.601052027357436,38.887650868674186,1.1800526013678718,0.6108457914219577,A,1059,Correct
2,relearn,17,208,D,25.866653661123856,16.518092212749508,1.2933326830561926,0.2594655857344631,A,2142,Incorrect
2,relearn,17,209,D,41.434867865071745,13.887861014614254,2.071743393253587,0.21815001068794113,C,719,Incorrect
2,relearn,17,210,D,56.77989773277524,43.90723362451914,2.838994886638762,0.6896932129712003,C,734,Incorrect
2,relearn,17,211,A,35.62463785903174,31.12039426651158,1.7812318929515871,0.4888380100224535,A,2647,Correct
2,relearn,17,212,C,53.95474389429199,36.74570260154048,2.697737194714599,0.5772001467199745,C,1102,Correct
2,relearn,17,213,A,32.75436286816694,34.74382977622412,1.637718143408347,0.5457548019127999,A,884,Correct
2,relearn,17,214,A,37.20608248959122,50.014015539521466,1.8603041244795608,0.785618318977432,C,903,Incorrect
2,relearn,17,215,B,25.786184999511363,66.5532357876934,1.289309249975568,1.0454157831162343,A,686,Incorrect
2,relearn,17,216,C,71.74120758459983,42.14611733765456,3.5870603792299915,0.662029663026545,C,1004,Correct
2,relearn,17,217,A,13.9316377131176,31.421326869984977,0.6965818856558801,0.4935650483039419,A,791,Correct
2,relearn,17,218,A,35.65049199839926,57.88116179730507,1.7825245999199633,0.909195163418279,A,4107,Correct
2,relearn,17,219,A,5.294725047409667,64.91443011471044,0.26473625237048337,1.0196734838017116,A,830,Correct
2,relearn,17,220,B,30.54115503053158,88.80069205530665,1.527057751526579,1.3948780089732047,A,1904,Incorrect
2,relearn,17,221,D,54.90915845685234,19.228038454713474,2.7454579228426166,0.30203332176134945,B,1491,Incorrect
2,relearn,17,222,D,69.90631957886274,16.784089587692506,3.495315978943137,0.26364386272943857,A,694,Incorrect
2,relearn,17,223,C,90.41110408954832,34.22907256273939,4.520555204477415,0.5376690145114701,C,511,Correct
2,relearn,17,224,D,52.821238234104726,46.79363602436676,2.6410619117052363,0.7350327158445265,C,1159,Incorrect
2,relearn,17,225,B,56.85826230136759,76.0574055701084,2.842913115068379,1.1947069329507598,C,877,Incorrect
2,relearn,17,226,D,40.56128271169067,17.56403833001211,2.0280641355845335,0.27589526892467797,D,678,Correct
2,relearn,17,227,C,85.58810283062186,73.58103222000395,4.279405141531093,1.1558081513295915,D,1390,Incorrect
2,relearn,17,228,C,94.06220196840982,66.59041049317361,4.703110098420491,1.0459997220244144,C,980,Correct
2,relearn,17,229,D,65.57498087147219,21.804353054543707,3.2787490435736095,0.3425019768621634,C,798,Incorrect
2,relearn,17,230,D,58.41415968136055,42.372714332895484,2.9207079840680272,0.6655890403044169,C,651,Incorrect
2,relearn,17,231,A,24.838553633797805,29.089959895018698,1.24192768168989,0.4569440214970623,B,736,Incorrect
2,relearn,17,232,C,87.42631423086954,64.88060994786936,4.371315711543477,1.0191422378632562,C,702,Correct
2,relearn,17,233,B,40.34699041028806,68.8888991575536,2.017349520514403,1.0821042975362922,C,2379,Incorrect
2,relearn,17,234,A,35.35080507915788,63.41416321953716,1.767540253957894,0.9961073465202099,A,711,Correct
2,relearn,17,235,B,63.89870239313041,94.27510988893765,3.1949351196565203,1.480869963217285,C,1117,Incorrect
2,relearn,17,236,B,32.167798854946724,87.27592152053948,1.6083899427473363,1.3709269694210309,A,758,Incorrect
2,relearn,17,237,A,22.413981159522976,68.53747122048387,1.1206990579761489,1.07658408040947,B,851,Incorrect
2,relearn,17,238,A,37.33494204009539,47.29650246505611,1.8667471020047697,0.742931723423559,A,573,Correct
2,relearn,17,239,D,28.543413884932004,12.515348253193334,1.4271706942466003,0.19659063064675017,A,624,Incorrect
2,relearn,17,240,A,4.214505120565839,53.06440009647767,0.21072525602829195,0.8335336475512187,A,724,Correct
2,relearn,17,241,D,62.43897568940584,37.34862908560453,3.1219487844702916,0.5866708937849263,C,995,Incorrect
2,relearn,17,242,C,77.62177977533929,37.93622800500972,3.8810889887669644,0.5959008760272295,A,2087,Incorrect
2,relearn,17,243,B,55.042850277849865,62.33075531266612,2.7521425138924935,0.9790892149148743,C,733,Incorrect
2,relearn,17,244,D,33.54245225658765,24.056360728262632,1.6771226128293824,0.3778764306800794,A,909,Incorrect
2,relearn,17,245,A,16.225363626718522,29.44130287351532,0.811268181335926,0.462462904097739,A,967,Correct
2,relearn,17,246,D,62.88737214181579,15.037535255683096,3.1443686070907892,0.23620905143675763,C,909,Incorrect
2,relearn,17,247,B,40.28534779393138,83.24506489485123,2.014267389696569,1.3076104216063509,D,3133,Incorrect
2,relearn,17,248,D,63.09716627840165,22.189310803468253,3.1548583139200828,0.3485488790419825,C,853,Incorrect
2,relearn,17,249,C,81.1850100618674,54.65950915764429,4.05925050309337,0.8585895620923966,C,831,Correct
2,relearn,17,250,B,70.84031157415359,90.5188030354858,3.5420155787076792,1.4218660331401183,D,1012,Incorrect
2,relearn,17,251,D,58.71779259117514,2.810803570144685,2.9358896295587567,0.044151999233252526,C,1087,Incorrect
2,relearn,17,252,C,83.8030234124753,42.39152095077872,4.190151170623765,0.6658844539673212,C,1541,Correct
2,relearn,17,253,D,54.41530354158573,41.101450522126214,2.7207651770792864,0.6456200750609804,B,1375,Incorrect
2,relearn,17,254,C,58.330785596035724,53.22105946801196,2.9165392798017864,0.8359944472048593,C,1573,Correct
2,relearn,17,255,C,68.09645236934317,42.637923966862786,3.4048226184671586,0.6697549434930814,A,813,Incorrect
2,relearn,17,256,D,33.08274991582465,32.54943634505574,1.6541374957912325,0.5112853505005787,C,815,Incorrect
2,relearn,17,257,A,32.429793422287844,29.71210691272268,1.6214896711143922,0.4667166839984204,D,805,Incorrect
2,relearn,17,258,D,31.606437518165865,28.441047060011687,1.5803218759082933,0.44675092252067156,C,1959,Incorrect
2,relearn,17,259,D,31.159524376179323,21.362944095709523,1.5579762188089663,0.3355683411506524,A,564,Incorrect
2,relearn,17,260,A,6.6804322430453205,39.52477905035338,0.334021612152266,0.6208537774967497,B,325,Incorrect
2,relearn,17,261,B,44.3723512572125,65.78186224484807,2.218617562860625,1.0332990758393523,A,718,Incorrect
2,relearn,17,262,C,53.03390047226132,47.74695482293406,2.6516950236130663,0.7500074125150668,C,3183,Correct
2,relearn,17,263,D,50.076900795167624,20.19702640372961,2.503845039758381,0.31725414887158015,C,862,Incorrect
2,relearn,17,264,C,97.9142354421854,42.89042642407226,4.895711772109269,0.6737212428159948,C,588,Correct
2,relearn,17,265,B,24.777545273428654,68.2982189375976,1.2388772636714327,1.0728259143381194,C,1117,Incorrect
2,relearn,17,266,C,86.22921602034953,58.08511041468374,4.311460801017477,0.9123987808086121,C,734,Correct
2,relearn,17,267,B,61.807504019714344,95.80445210233846,3.090375200985717,1.5048928145295084,D,2069,Incorrect
2,relearn,17,268,A,32.7529520519902,75.17003726701445,1.6376476025995101,1.1807681842406177,C,1495,Incorrect
2,relearn,17,269,A,31.502971994476784,68.37226997745438,1.5751485997238392,1.0739891053521433,A,1244,Correct
2,relearn,17,270,D,43.72561931829578,46.447989531495566,2.1862809659147886,0.7296033134308105,C,2422,Incorrect
2,relearn,17,271,C,78.4688031466232,60.7115942000417,3.92344015733116,0.9536554916328785,C,717,Correct
2,relearn,17,272,D,67.87260189830833,6.77721660992724,3.393630094915417,0.10645626956767071,D,2940,Correct
2,relearn,17,273,A,11.218244691421642,50.96526309606841,0.5609122345710822,0.8005604806543976,A,1552,Correct
2,relearn,17,274,D,37.762690671020735,25.245587014590438,1.8881345335510367,0.39655675350299596,D,2723,Correct
2,relearn,17,275,A,24.042802299819733,27.556229349552552,1.2021401149909865,0.43285223842594867,A,2214,Correct
2,relearn,17,276,A,14.838214477490247,63.36320101288629,0.7419107238745124,0.9953068340500846,B,3197,Incorrect
2,relearn,17,277,A,33.37993552580214,61.9146892836835,1.6689967762901068,0.9725536650145739,D,1214,Incorrect
2,relearn,17,278,D,63.65277443292732,3.2457557572648525,3.182638721646366,0.05098421221185018,D,1157,Correct
2,relearn,17,279,A,28.240476455426577,57.48211586196294,1.4120238227713289,0.9029269645237005,A,944,Correct
2,relearn,17,280,C,76.65394002868243,58.28897547757398,3.8326970014341213,0.91560108572811,C,2332,Correct
2,relearn,17,281,C,91.87711183282744,45.71575739126733,4.593855591641372,0.7181014378684937,B,6732,Incorrect
2,relearn,17,282,D,69.19367498328198,8.241879296245838,3.4596837491640993,0.12946313724429867,C,593,Incorrect
2,relearn,17,283,B,57.690617390374655,70.80402033918665,2.884530869518733,1.1121869507110553,C,2533,Incorrect
2,relearn,17,284,D,59.42354551145336,8.3776557090044,2.9711772755726678,0.13159590814856406,C,670,Incorrect
2,relearn,17,285,C,91.2715748188398,36.3749151959268,4.563578740941989,0.5713758317723769,C,598,Correct
2,relearn,17,286,C,63.19740948852546,34.45682076621591,3.1598704744262727,0.5412464749260207,C,3421,Correct
2,relearn,17,287,C,68.79216539602879,40.897384598784555,3.4396082698014396,0.6424146150328895,C,614,Correct
2,relearn,17,288,A,17.445139279559818,63.84665827467161,0.8722569639779908,1.0029009629598313,A,788,Correct
2,relearn,17,289,C,86.23323253037084,62.368358221549315,4.311661626518542,0.9796798800263795,C,687,Correct
2,relearn,17,290,D,64.24438921025866,15.398259036781619,3.212219460512933,0.2418752873401289,C,590,Incorrect
2,relearn,17,291,D,29.756179399147918,10.38910745454342,1.487808969957396,0.16319171828274284,A,716,Incorrect
2,relearn,17,292,C,98.25173029389327,54.64849624247515,4.912586514694664,0.8584165716254467,C,573,Correct
2,relearn,17,293,A,43.713534859673835,43.111958097355576,2.185676742983692,0.6772010542026163,C,1909,Incorrect
2,relearn,17,294,B,44.70323060473635,86.47454230039682,2.2351615302368173,1.3583389340673322,D,2637,Incorrect
2,relearn,17,295,B,52.90510223423834,55.864219840806825,2.645255111711917,0.8775131132520195,A,1110,Incorrect
2,relearn,17,296,D,35.65349011242168,27.175143473458803,1.782674505621084,0.426866155482334,B,622,Incorrect
2,relearn,17,297,B,38.856875476287875,81.48413936180032,1.9428437738143938,1.2799498680155939,D,1070,Incorrect
2,relearn,17,298,B,33.79993435574342,84.59763072356039,1.6899967177871706,1.3288564759611974,A,1006,Incorrect
2,relearn,17,299,D,54.34977529904938,44.269465774129756,2.717488764952469,0.6953831422717541,C,829,Incorrect
2,relearn,17,300,B,55.49813707692841,74.04438310666372,2.7749068538464208,1.1630864500374145,C,773,Incorrect
2,relearn,17,301,D,53.60508840827599,0.2287711186174306,2.6802544204137995,0.0035935283280101957,D,1061,Correct
2,relearn,17,302,A,32.46440820680648,46.406076071447046,1.623220410340324,0.7289449383399357,C,821,Incorrect
2,relearn,17,303,C,79.72983540291496,53.21408307331748,3.9864917701457476,0.8358848622532558,C,693,Incorrect
2,relearn,17,304,C,56.79505435739962,58.07343749389213,2.839752717869981,0.9122154229975876,C,694,Incorrect
2,relearn,17,305,D,56.94819469772954,7.403289316831124,2.847409734886477,0.11629059665078229,D,1095,Correct
2,relearn,17,306,C,78.45235128964451,36.599234285963185,3.9226175644822256,0.5748994277989682,C,1780,Incorrect
2,relearn,17,307,A,5.427250767366626,68.34282752636838,0.2713625383683313,1.0735266244119661,A,622,Incorrect
2,relearn,17,308,A,19.567117021604957,59.5604836738232,0.9783558510802479,0.9355738897696889,B,853,Incorrect
2,relearn,17,309,A,6.0632306768909885,64.59776565056843,0.3031615338445494,1.0146993300307043,B,16165,Correct
2,relearn,17,310,A,13.149543732463314,56.471653033959534,0.6574771866231657,0.887054651537795,B,1838,Incorrect
2,relearn,17,311,A,39.54497625899763,52.722493412623166,1.9772488129498813,0.828162989920166,C,1830,Incorrect
2,relearn,17,312,D,63.0082531362878,4.754048046649817,3.1504126568143898,0.07467641209083986,D,500,Incorrect
2,relearn,17,313,C,62.39580755626248,55.995960079551836,3.119790377813124,0.8795824840831369,C,783,Incorrect
2,relearn,17,314,C,81.59397223633314,74.64584677589376,4.0796986118166565,1.172534219260686,C,958,Incorrect
2,relearn,17,315,C,72.26411797227223,55.18922668426062,3.6132058986136117,0.8669103455428746,C,942,Incorrect
2,relearn,17,316,C,99.45586377612099,40.7368152256625,4.972793188806049,0.6398923972179306,D,453,Incorrect
2,relearn,17,317,B,37.14716577483716,94.15759105895013,1.857358288741858,1.4790239817525483,A,677,Incorrect
2,relearn,17,318,D,46.121506885541486,18.727678367157463,2.3060753442770743,0.2941736838852719,C,548,Correct
2,relearn,17,319,C,52.33951625630715,46.96536866731971,2.6169758128153573,0.7377302858919392,C,572,Correct
2,relearn,17,320,B,38.246424883092686,67.60579402056143,1.9123212441546342,1.0619493291755029,D,752,Correct
2,relearn,17,321,D,25.938018199043103,21.792831502138622,1.2969009099521551,0.34232099674019456,C,1171,Incorrect
2,relearn,17,322,D,40.78529284335434,13.875880123488063,2.039264642167717,0.21796181529021363,B,8733,Correct
2,relearn,17,323,A,30.778166065880214,26.74756206414007,1.5389083032940107,0.4201497224106974,D,447,Incorrect
2,relearn,17,324,C,82.75600980892355,50.415726590037934,4.137800490446177,0.7919283814032738,B,347,Incorrect
2,relearn,17,325,C,71.72931977436706,46.63049511831855,3.586465988718353,0.7324701044848213,D,472,Incorrect
2,relearn,17,326,B,54.6205377382003,82.67373923209466,2.731026886910015,1.2986360590817343,A,869,Incorrect
2,relearn,17,327,D,39.46261123944096,10.923597657421578,1.9731305619720478,0.1715874707566315,C,519,Incorrect
2,relearn,17,328,B,63.737180869093635,73.12575865630356,3.186859043454682,1.1486567309141174,C,701,Incorrect
2,relearn,17,329,B,39.01924672113704,97.18046481137618,1.950962336056852,1.5265071716193042,D,958,Incorrect
2,relearn,17,330,A,17.494080089553897,50.45235064772491,0.8747040044776949,0.7925036707561441,A,714,Correct
2,relearn,17,331,B,39.281865466892725,98.2014624839521,1.9640932733446363,1.5425449655567882,B,878,Correct
2,relearn,17,332,C,70.47484068378878,46.02078582175996,3.523742034189439,0.722892813250352,C,518,Incorrect
2,relearn,17,333,D,60.265764890976655,30.57163539811266,3.0132882445488325,0.48021812587468204,A,301,Incorrect
2,relearn,17,334,C,73.76009436737627,64.62852133275625,3.6880047183688136,1.0151824391567914,B,336,Correct
2,relearn,17,335,B,53.25457451953409,94.93040110977174,2.6627287259767045,1.491163253643956,D,891,Incorrect
2,relearn,17,336,A,24.93866045555973,44.87833414412731,1.2469330227779865,0.7049472242626916,A,782,Correct
2,relearn,17,337,B,31.70908952867436,72.3260062302356,1.585454476433718,1.136094249181989,B,615,Correct
2,relearn,17,338,B,64.47131416802043,90.32547467160575,3.223565708401021,1.4188292383016377,A,358,Correct
2,relearn,17,339,C,81.91548611096273,29.665838424847223,4.095774305548137,0.46598990029040915,A,221,Incorrect
2,relearn,17,340,C,74.87869171224088,29.051232740792127,3.743934585612044,0.45633569678099906,B,1181,Incorrect
2,relearn,17,341,A,25.16762671179216,36.69022090347406,1.258381335589608,0.5763286422447038,C,509,Incorrect
2,relearn,17,342,D,58.195613569455205,31.927967739422346,2.9097806784727602,0.5015233444711058,C,598,Incorrect
2,relearn,17,343,A,31.97171543549721,26.588617662150853,1.5985857717748604,0.41765302958260475,C,589,Incorrect
2,relearn,17,344,B,42.79690033632734,76.90590096415372,2.1398450168163667,1.2080350674334475,D,1406,Incorrect
2,relearn,17,345,B,64.24827888868508,79.93127229088712,3.212413944434254,1.2555574891056818,C,717,Incorrect
2,relearn,17,346,B,71.53973251474294,75.20485824502813,3.5769866257371468,1.1813151508842108,A,1629,Correct
2,relearn,17,347,D,53.85568916898802,6.8861313270915865,2.692784458449401,0.10816709794422731,D,806,Correct
2,relearn,17,348,B,73.42419118248185,77.93507891333907,3.6712095591240925,1.2242013568554342,C,1911,Incorrect
2,relearn,17,349,B,57.441607038785705,92.31665741001616,2.8720803519392852,1.4501066636163624,A,730,Correct
2,relearn,17,350,A,42.89298050893544,60.770584753473415,2.144649025446772,0.9545821130793398,A,640,Incorrect
2,relearn,17,351,C,77.17555194117426,54.412181388589254,3.858777597058713,0.8547045465809364,C,518,Correct
2,relearn,17,352,B,62.08484153277348,69.43246797559887,3.104242076638674,1.09064265656375,D,1158,Incorrect
2,relearn,17,353,D,34.14723834105619,45.40608197999967,1.7073619170528094,0.7132370678833142,B,962,Incorrect
2,relearn,17,354,B,39.11986223861122,69.53678582531086,1.9559931119305611,1.092281277515217,C,672,Correct
2,relearn,17,355,C,73.60362385488686,27.73982960772253,3.680181192744343,0.4357362245372686,C,660,Correct
2,relearn,17,356,B,40.6846728103865,71.21886145015249,2.034233640519325,1.1187032596441417,C,2327,Incorrect
2,relearn,17,357,B,65.02785780252849,56.798280109520135,3.2513928901264246,0.8921852976430186,D,420,Incorrect
2,relearn,17,358,C,58.488921542057284,36.23361201441518,2.9244460771028638,0.5691562465875479,C,941,Correct
2,relearn,17,359,A,40.79872211229516,42.25747742593878,2.0399361056147582,0.6637789032028288,C,439,Incorrect
2,relearn,17,360,B,70.51532175034126,83.3842779349688,3.5257660875170633,1.3097971749269373,C,901,Incorrect
2,relearn,17,361,C,59.27559662226593,55.97477547924263,2.963779831113296,0.8792497171596338,C,639,Correct
2,relearn,17,362,B,36.30942004956483,91.9627319895959,1.8154710024782414,1.4445472161128072,B,1236,Incorrect
2,relearn,17,363,C,66.96450718259037,34.44648927822299,3.3482253591295184,0.5410841882921247,C,1342,Incorrect
2,relearn,17,364,A,21.35392946031476,65.22508814134264,1.067696473015738,1.0245532886729438,A,3637,Incorrect
2,relearn,17,365,A,20.653297582330623,33.057907342731234,1.0326648791165312,0.5192723942548826,A,3421,Incorrect
2,relearn,17,366,C,70.7384538425045,38.59841268525919,3.536922692125225,0.6063024486611868,C,736,Incorrect
2,relearn,17,367,D,38.96638602708454,15.24865186980996,1.9483193013542268,0.23952526345671615,D,518,Correct
2,relearn,17,368,D,24.52323373290337,22.677777565226528,1.2261616866451686,0.35622169699329537,D,507,Correct
2,relearn,17,369,D,46.25414902671857,13.70530560790968,2.3127074513359287,0.21528243706506026,D,686,Correct
2,relearn,17,370,A,29.766934515315473,33.502261670815784,1.4883467257657736,0.5262522957183888,D,780,Incorrect
2,relearn,17,371,A,20.877171104238116,74.77268001668189,1.0438585552119057,1.1745265111481407,A,1264,Incorrect
2,relearn,17,372,C,85.86997717918534,71.34924063840168,4.293498858959267,1.1207512511440654,C,636,Correct
2,relearn,17,373,B,43.58827971042467,88.66374266663423,2.1794139855212338,1.39272681300637,D,803,Incorrect
2,relearn,17,374,A,6.779316827544857,47.976447987979434,0.3389658413772429,0.7536122827218449,A,718,Correct
2,relearn,17,375,A,12.120992466023603,71.95477976302166,0.6060496233011802,1.130263037470902,A,638,Incorrect
2,relearn,17,376,C,58.64503948049024,68.07856961691914,2.932251974024512,1.0693756708770723,C,2892,Incorrect
2,relearn,17,377,A,32.04782698908565,54.93354360150831,1.6023913494542825,0.8628940850707656,A,9151,Correct
2,relearn,17,378,C,73.9045517787827,65.00099906127281,3.6952275889391353,1.0210333056344585,C,517,Incorrect
2,relearn,17,379,D,29.164876651676458,38.61938702031342,1.4582438325838227,0.6066319127457883,D,943,Correct
2,relearn,17,380,D,68.76586084868232,42.54045472508723,3.4382930424341165,0.6682239002235163,D,463,Correct
2,relearn,17,381,B,56.015414697723315,99.55014164390889,2.8007707348861657,1.5637299682616377,D,964,Incorrect
2,relearn,17,382,D,73.10973949215197,11.53510926094608,3.6554869746075984,0.18119307256271897,C,924,Incorrect
2,relearn,17,383,D,54.21859648137654,45.45358971265961,2.710929824068827,0.71398331760288,D,1350,Incorrect
2,relearn,17,384,A,31.259158282020223,45.50974158907643,1.5629579141010113,0.714865349215062,A,961,Incorrect
2,relearn,17,385,D,41.798291572184304,21.64927196095652,2.089914578609215,0.34006596874054246,C,692,Correct
2,relearn,17,386,C,60.840503211526425,39.87168111289694,3.0420251605763213,0.6263029023527596,C,1399,Correct
2,relearn,17,387,A,39.29681832587451,39.2707562154427,1.9648409162937255,0.6168635961367526,C,501,Incorrect
2,relearn,17,388,C,78.4297768346065,70.13728513788293,3.921488841730325,1.1017138986595278,C,638,Correct
2,relearn,17,389,B,60.52967407050558,67.37916170594842,3.0264837035252787,1.0583893971022313,A,383,Incorrect
2,relearn,17,390,D,27.843256716779592,25.86108002705848,1.3921628358389797,0.4062248951345232,D,276,Incorrect
2,relearn,17,391,A,48.469725545833455,59.14660040995869,2.4234862772916728,0.9290726266636864,C,783,Incorrect
2,relearn,17,392,D,59.88132052726841,33.939341170541645,2.9940660263634205,0.5331179244452562,C,5997,Correct
2,relearn,17,393,A,33.32143095601106,61.01396545253236,1.666071547800553,0.9584051281602857,A,773,Correct
2,relearn,17,394,C,83.72299583596595,29.241986800793313,4.1861497917982975,0.4593320545487098,D,684,Incorrect
2,relearn,17,395,D,28.3937271961403,25.643740565281743,1.4196863598070149,0.40281093485225844,A,416,Incorrect
2,relearn,17,396,D,49.85450232442156,22.22732347334853,2.492725116221078,0.34914598066417846,D,6508,Correct
2,relearn,17,397,C,57.526423298784664,63.66207189004472,2.8763211649392333,1.0000014868103488,C,1000,Incorrect
2,relearn,17,398,A,33.92737360875045,67.75928711307662,1.6963686804375226,1.0643603930346153,A,1093,Correct
2,relearn,17,399,A,41.99038784978074,33.63639865355213,2.099519392489037,0.528359314516085,C,1701,Incorrect
2,relearn,17,400,B,52.846265802017555,98.19537846582001,2.642313290100878,1.5424493980234477,D,806,Incorrect
2,relearn,17,401,C,55.32132641494719,42.49542017201107,2.7660663207473597,0.6675164991180075,C,3941,Incorrect
2,relearn,17,402,A,5.678908340105217,39.463130901816555,0.2839454170052608,0.6198854106439963,A,3923,Correct
2,relearn,17,403,A,1.209897932765859,60.92218888372297,0.06049489663829295,0.9569635051885691,A,663,Correct
2,relearn,17,404,D,52.70521355266241,47.782797085539464,2.6352606776331204,0.7505704214595127,D,759,Correct
2,relearn,17,405,D,72.53450603695893,26.571563982674228,3.6267253018479466,0.41738515101180246,C,716,Incorrect
2,relearn,17,406,C,64.28984893703958,66.29149668180295,3.214492446851979,1.0413043948551215,C,927,Incorrect
2,relearn,17,407,A,28.53772569906094,67.78140429728472,1.426886284953047,1.0647078089517465,A,766,Incorrect
2,relearn,17,408,B,72.42833219664014,85.37005051209421,3.621416609832007,1.3409896176269236,C,812,Incorrect
2,relearn,17,409,C,85.69707613080287,54.75592646383759,4.284853806540144,0.8601040815964756,D,1379,Incorrect
2,relearn,17,410,D,54.71877802733724,50.611848236341416,2.735938901366862,0.7950090530194587,B,2040,Incorrect
2,relearn,17,411,A,38.21166498325199,50.719081875247255,1.9105832491625996,0.79669347508048,A,876,Incorrect
2,relearn,17,412,D,47.95945788272191,23.82797243688992,2.397972894136095,0.37428891578836715,C,773,Incorrect
2,relearn,17,413,A,25.887538692631985,53.9458964527777,1.2943769346315992,0.8473801599368106,A,1541,Incorrect
2,relearn,17,414,C,82.61658688135522,70.24516863461041,4.13082934406776,1.103408528663341,C,684,Correct
2,relearn,17,415,D,64.44579015786528,40.20873976296824,3.222289507893264,0.6315974072472241,C,872,Incorrect
2,relearn,17,416,B,67.3768958882054,59.96610922650589,3.36884479441027,0.9419454410517704,C,717,Correct
2,relearn,17,417,D,66.73050085849879,14.253836226869074,3.336525042924939,0.2238987358790197,A,1415,Incorrect
2,relearn,17,418,D,47.1894739781847,3.269320943556007,2.3594736989092353,0.051354373292514015,A,755,Incorrect
2,relearn,17,419,A,18.150274977029223,54.84351564580179,0.9075137488514612,0.8614799292494388,A,12141,Correct
2,relearn,17,420,A,30.332653028687275,27.425825470683435,1.5166326514343638,0.4308038590866745,C,1966,Incorrect
2,relearn,17,421,B,40.92319805906156,91.59074172129294,2.0461599029530784,1.4387040066422705,C,735,Incorrect
2,relearn,17,422,D,35.711775941887836,36.9089905022612,1.7855887970943918,0.579765067066596,A,573,Correct
2,relearn,17,423,B,47.418022587592624,64.67863734020918,2.370901129379631,1.0159696595609982,A,471,Incorrect
2,relearn,17,424,B,31.855160688721465,74.85996893751474,1.5927580344360732,1.175897642310282,A,732,Incorrect
2,relearn,17,425,D,62.07138240780866,13.473758584045163,3.1035691203904334,0.21164530491939348,C,615,Incorrect
2,relearn,17,426,A,21.286182859665807,51.10433991033231,1.0643091429832905,0.8027450941442781,A,791,Incorrect
2,relearn,17,427,A,31.014951861367365,57.29199920060668,1.5507475930683683,0.8999406189904913,B,764,Incorrect
2,relearn,17,428,D,76.04607162761025,27.572319947565298,3.802303581380512,0.43310498894849225,C,775,Incorrect
2,relearn,17,429,A,46.35576473707795,50.57304262188023,2.3177882368538976,0.794399495852912,D,1659,Incorrect
2,relearn,17,430,D,66.3101264945402,21.21820041095884,3.3155063247270102,0.3332947126673211,C,854,Incorrect
2,relearn,17,431,C,76.187463552933,36.72112813371973,3.8093731776466497,0.5768141318821169,D,6837,Incorrect
2,relearn,17,432,A,8.822100121026597,59.77047484880454,0.44110500605132985,0.9388724234328892,C,14052,Correct
2,relearn,17,433,A,10.971075175590231,39.46010704750033,0.5485537587795115,0.6198379120514692,C,496,Incorrect
2,relearn,17,434,C,80.04111670813577,72.58791456208468,4.0020558354067886,1.1402082956382438,A,437,Incorrect
2,relearn,17,435,C,95.7326862699002,65.28103350274692,4.786634313495011,1.0254320763548943,D,276,Incorrect
2,relearn,17,436,D,42.43746395161265,25.43675388681503,2.121873197580632,0.39955959570994853,D,326,Incorrect
2,relearn,17,437,A,35.61884940440864,71.29635539685474,1.7809424702204322,1.1199205317124292,D,285,Incorrect
2,relearn,17,438,C,67.36430681142436,71.010096955804,3.3682153405712176,1.115423994635264,C,272,Correct
2,relearn,17,439,A,13.33312070544765,54.380240414285254,0.6666560352723825,0.8542028189298266,A,1454,Correct
2,relearn,17,440,A,31.892182364844302,43.38569778230889,1.594609118242215,0.6815009471188429,C,4486,Incorrect
2,relearn,17,441,A,43.25360773950837,32.8421799404924,2.1626803869754183,0.5158837561446249,D,1085,Incorrect
2,relearn,17,442,D,57.3916652148838,0.8178308996396915,2.8695832607441902,0.012846457730933928,D,965,Incorrect
2,relearn,17,443,C,82.45892543336392,56.921810122475954,4.122946271668195,0.8941257025490178,C,511,Incorrect
2,relearn,17,444,B,48.637967446631926,61.86899003839723,2.4318983723315966,0.9718358229482441,A,1054,Correct
2,relearn,17,445,C,59.31453871101614,40.874183278416716,2.965726935550807,0.6420501695447836,B,646,Incorrect
2,relearn,17,446,C,56.303319490196145,32.97966212368884,2.8151659745098074,0.518043321228272,C,614,Incorrect
2,relearn,17,447,C,79.14487209487743,74.9749863249366,3.9572436047438715,1.17770433120708,C,1380,Incorrect
2,relearn,17,448,B,30.793997750244152,72.33489287771755,1.5396998875122077,1.1362338403142105,B,1021,Incorrect
2,relearn,17,449,C,72.50019438467115,64.89652058493982,3.6250097192335575,1.0193921615659287,C,1397,Incorrect
2,relearn,17,450,C,97.2934259488987,49.34323839909415,4.864671297444935,0.7750817762946197,C,2607,Correct
2,relearn,17,451,C,62.4542029394341,62.281322094074596,3.1227101469717047,0.9783127197330221,D,3683,Incorrect
2,relearn,17,452,C,97.45350849398609,44.344491073728996,4.872675424699304,0.6965616369220259,C,663,Correct
2,relearn,17,453,C,84.04971660372438,60.51868946422439,4.202485830186219,0.9506253511284467,C,724,Incorrect
2,relearn,17,454,C,90.986849759991,33.32537213375144,4.54934248799955,0.5234737213676978,C,470,Incorrect
2,relearn,17,455,B,38.15343459654793,68.4812768755486,1.9076717298273964,1.0757013817033603,A,612,Incorrect
2,relearn,17,456,A,19.809487257500376,71.71691436930277,0.9904743628750188,1.1265266566036494,B,559,Incorrect
2,relearn,17,457,A,8.947438143415443,48.10421943337376,0.44737190717077213,0.7556193118927917,A,575,Correct
2,relearn,17,458,C,97.88343961934446,61.996833361695664,4.894171980967223,0.9738439811746685,A,1533,Incorrect
2,relearn,17,459,B,63.952657051249645,58.91999098671329,3.197632852562482,0.9255130541671764,B,1677,Correct
2,relearn,17,460,A,12.774194392198888,66.11293529414819,0.6387097196099444,1.0384995591367663,A,1837,Incorrect
2,relearn,17,461,B,70.86922720080004,87.1001953969674,3.543461360040002,1.3681666699267414,C,1213,Incorrect
2,relearn,17,462,B,69.42268984218487,75.35044385752965,3.4711344921092433,1.1836020043377264,C,1093,Incorrect
2,relearn,17,463,C,71.2259292528958,45.76299815403557,3.56129646264479,0.7188434940348071,C,11669,Incorrect
2,relearn,17,464,C,77.10988570719508,39.53155856061609,3.855494285359754,0.620960269794931,C,1055,Correct
2,relearn,17,465,C,75.98843236379923,38.19292253047484,3.7994216181899616,0.5999330242043192,C,1197,Correct
2,relearn,17,466,A,19.675028106376466,43.662521040510555,0.9837514053188232,0.6858492766903886,B,5268,Incorrect
2,relearn,17,467,D,53.01438414676663,46.96723757603522,2.650719207338332,0.7377596426413935,C,2446,Correct
2,relearn,17,468,D,55.262826995219946,22.53114213598312,2.7631413497609976,0.35391835305696007,C,640,Incorrect
2,relearn,17,469,A,40.16514035823312,64.35974132921075,2.0082570179116557,1.0109604527339393,D,643,Correct
2,relearn,17,470,C,68.01304926920575,72.90076401204409,3.4006524634602875,1.1451225233066047,D,3119,Incorrect
2,relearn,17,471,C,72.08524458603182,33.70324739721474,3.604262229301591,0.5294093721260457,D,662,Incorrect
2,relearn,17,472,D,62.9012517667465,46.60844200899497,3.145062588337325,0.7321236950536225,C,565,Incorrect
2,relearn,17,473,C,71.10326339878338,34.96131837793199,3.5551631699391693,0.5491711048796247,D,1277,Incorrect
2,relearn,17,474,A,25.56614043409344,59.6184919337217,1.2783070217046721,0.9364850813854121,A,798,Correct
2,relearn,17,475,C,50.17571684162263,45.53832697830961,2.5087858420811315,0.7153143674591367,C,750,Incorrect
2,relearn,17,476,A,32.32048806064839,55.349217297920966,1.6160244030324193,0.869423472225468,A,629,Incorrect
2,relearn,17,477,D,57.628327029334585,26.12217688239195,2.8814163514667293,0.4103261949474784,A,3861,Incorrect
2,relearn,17,478,B,47.77282052017552,57.02851261128904,2.388641026008776,0.8958017813238925,C,1223,Incorrect
2,relearn,17,479,B,67.17941334139294,83.75591583802141,3.3589706670696473,1.3156348494570653,C,1542,Incorrect
2,relearn,17,480,B,51.10890893610286,73.72699108425236,2.555445446805143,1.158100867807837,D,726,Incorrect
2,relearn,17,481,B,33.01436923055872,55.16857884580438,1.650718461527936,0.8665860100548416,A,579,Incorrect
2,relearn,17,482,B,32.591340356583785,89.71218161199072,1.6295670178291892,1.4091956534487167,C,903,Incorrect
2,relearn,17,483,C,85.45000504635198,62.74773702354128,4.272500252317599,0.9856391483127077,C,543,Correct
2,relearn,17,484,A,30.120292946152873,53.29931935604186,1.5060146473076435,0.8372237506513869,D,805,Incorrect
2,relearn,17,485,C,88.00019371328678,46.270761201437516,4.4000096856643385,0.7268194173322187,C,9847,Correct
2,relearn,17,486,D,44.910521386009094,19.2295566927367,2.2455260693004546,0.3020571701884503,D,1124,Incorrect
2,relearn,17,487,C,90.62727581054916,68.72259641807456,4.531363790527458,1.0794920202131963,C,3093,Correct
2,relearn,17,488,C,55.07127948022249,65.6216597112643,2.753563974011125,1.0307826203263861,C,646,Correct
2,relearn,17,489,A,32.24004533206102,62.24338780149529,1.6120022666030511,0.9777168492585908,A,637,Correct
2,relearn,17,490,C,55.976653020623104,40.443313983250015,2.7988326510311548,0.635282090483018,C,743,Incorrect
2,relearn,17,491,D,54.944029332742204,44.562046346445314,2.7472014666371103,0.6999789871546024,C,1860,Incorrect
2,relearn,17,492,A,34.0955236907738,45.01969581063918,1.7047761845386902,0.7071677281277561,A,1094,Correct
2,relearn,17,493,D,23.96036266654472,22.72153244742688,1.1980181333272362,0.356908997075692,A,622,Incorrect
2,relearn,17,494,C,69.91132312762772,43.49491207827995,3.4955661563813862,0.6832164812682914,C,437,Incorrect
2,relearn,17,495,D,38.480096559714404,1.4956211806961726,1.9240048279857203,0.023493162569141943,D,741,Incorrect
2,relearn,17,496,C,64.06914336081314,52.59853007572074,3.203457168040657,0.8262157783775304,A,330,Incorrect
2,relearn,17,497,C,78.34776996993595,44.66419853948783,3.9173884984967975,0.7015835900506547,C,566,Incorrect
2,relearn,17,498,D,34.15520535531728,39.04264181940695,1.7077602677658639,0.6132803835829326,A,2824,Incorrect
2,relearn,17,499,C,82.75868786157679,44.6215013128752,4.137934393078839,0.7009129035833802,A,726,Incorrect
2,relearn,17,500,C,97.05488722896693,43.626579669260416,4.852744361448347,0.6852847109509917,D,6075,Incorrect
2,relearn,17,501,D,44.046833982406575,4.166373721463419,2.202341699120329,0.06544524537729522,D,2408,Incorrect
2,relearn,17,502,D,70.23871518389245,26.22232688440499,3.5119357591946225,0.4118993475003842,D,3684,Incorrect
2,relearn,17,503,B,67.86324546960344,63.20643735474125,3.393162273480172,0.992844396266193,C,623,Incorrect
2,relearn,17,504,C,82.95426224265819,26.486072964167754,4.147713112132909,0.41604226123336324,C,637,Incorrect
2,relearn,17,505,B,74.36868804858139,67.81222722309494,3.7184344024290694,1.0651919743381841,A,4125,Correct
2,relearn,17,506,D,32.78268195552783,28.688293055898235,1.6391340977763915,0.4506346535422048,A,518,Correct
2,relearn,17,507,C,90.60985169320008,62.76564928299496,4.530492584660005,0.9859205134262521,D,1151,Incorrect
2,relearn,17,508,B,51.290070845485886,56.026050601684815,2.5645035422742946,0.8800551448995151,D,1044,Incorrect
2,relearn,17,509,B,32.095033835276595,70.89439669089126,1.6047516917638296,1.1136065791239227,D,188,Incorrect
2,relearn,17,510,C,72.56834974461017,40.36998758139593,3.6284174872305086,0.6341302820561231,C,2630,Incorrect
2,relearn,17,511,A,35.89525840151097,25.863563019647884,1.7947629200755486,0.4062638978909122,A,1333,Incorrect
2,relearn,17,512,D,43.146348923094855,46.32032894368753,2.157317446154743,0.7275980256067571,C,839,Correct
2,relearn,17,513,C,71.92506227221297,37.1414048267255,3.596253113610649,0.5834158227382265,C,622,Incorrect
2,relearn,17,514,A,1.2304687394125189,57.934398972278146,0.06152343697062594,0.9100314110072454,A,2798,Correct
2,relearn,17,515,D,48.659120992305745,17.39886794756388,2.4329560496152873,0.273300778624228,C,831,Correct
2,relearn,17,516,C,74.76826334121387,49.23161062476298,3.7384131670606933,0.7733283313157427,C,682,Incorrect
2,relearn,17,517,A,16.198729713390897,44.210708792601,0.8099364856695448,0.6944601897641648,A,616,Correct
2,relearn,17,518,D,70.91559933984394,27.043165400116557,3.545779966992197,0.42479304875409923,C,579,Incorrect
2,relearn,17,519,B,49.07905206647267,53.01321132127363,2.453952603323634,0.8327295761505825,D,630,Incorrect
2,relearn,17,520,A,33.22105423072211,26.995010486804034,1.6610527115361053,0.4240366331446149,C,10830,Incorrect
2,relearn,17,521,C,86.787491883228,54.901549964637105,4.3393745941613995,0.8623915301979844,C,596,Incorrect
2,relearn,17,522,A,7.0507473873954005,46.66319849697639,0.35253736936977004,0.7329838079555165,D,280,Incorrect
2,relearn,17,523,C,71.44080478234089,58.540438082099925,3.5720402391170443,0.9195510510832665,C,661,Correct
2,relearn,17,524,B,43.3054596867625,49.7298314786345,2.165272984338125,0.7811543661876831,C,909,Incorrect
2,relearn,17,525,A,41.18956018920268,48.43489458494514,2.059478009460134,0.7608135450272986,A,1261,Incorrect
2,relearn,17,526,D,61.95251561126766,24.965141772916947,3.0976257805633827,0.39215152994811775,C,644,Correct
2,relearn,17,527,A,7.849257031683081,62.7978953716614,0.39246285158415406,0.9864270338025594,C,5413,Incorrect
2,relearn,17,528,D,68.92383453112912,6.889225064162186,3.4461917265564557,0.10821569425249297,C,896,Incorrect
2,relearn,17,529,C,55.94797050672186,44.90601811038742,2.7973985253360927,0.7053820829878166,C,510,Correct
2,relearn,17,530,C,66.51223574987242,65.83162542016454,3.3256117874936204,1.03408075396932,C,611,Incorrect
2,relearn,17,531,C,49.133776233983,55.60882292390764,2.45668881169915,0.8735013478626196,D,5157,Incorrect
2,relearn,17,532,C,79.49608161543928,44.09217969731286,3.974804080771964,0.6925983390891955,C,1486,Correct
2,relearn,17,533,B,30.643603063432526,77.25035019080464,1.5321801531716264,1.2134456632333535,A,2566,Incorrect
2,relearn,17,534,D,50.67675059993128,37.80958170611119,2.533837529996564,0.5939115206161096,B,1892,Incorrect
2,relearn,17,535,D,49.56138162454503,11.115951016793598,2.4780690812272512,0.1746089502601138,C,558,Incorrect
2,relearn,17,536,C,64.06837859846874,38.6443797265342,3.2034189299234366,0.6070244972570709,D,662,Incorrect
2,relearn,17,537,B,47.60853096536458,78.70590265413223,2.380426548268229,1.2363094278618763,C,2335,Incorrect
2,relearn,17,538,C,95.98470716625526,49.167297482378,4.799235358312763,0.7723181028375132,C,1333,Incorrect
2,relearn,17,539,C,96.24139684806678,63.2040271100941,4.812069842403339,0.9928065362318088,B,373,Incorrect
2,relearn,17,540,B,37.61234421785072,75.96089728442705,1.8806172108925359,1.1931909843442243,D,755,Incorrect
2,relearn,17,541,B,40.91245806419047,97.59432786767348,2.0456229032095234,1.5330081173055832,C,382,Incorrect
2,relearn,17,542,A,48.722482608698535,44.36226852171025,2.436124130434927,0.6968408844219133,C,782,Incorrect
2,relearn,17,543,C,93.9137533606657,33.59544380178335,4.695687668033284,0.5277159972088565,A,327,Incorrect
2,relearn,17,544,A,5.7067894032260575,64.6699508686686,0.2853394701613029,1.0158332127851109,A,838,Incorrect
2,relearn,17,545,A,20.58050936547788,70.87403043805169,1.029025468273894,1.1132866667724128,D,4980,Incorrect
2,relearn,17,546,A,21.321968280908223,56.0004060578754,1.066098414045411,0.8796523213473335,B,311,Incorrect
2,relearn,17,547,D,66.66839102293882,19.222132150769315,3.3334195511469407,0.3019405457559452,C,574,Incorrect
2,relearn,17,548,B,59.80699494760782,61.0460034087822,2.9903497473803906,0.9589083792002381,A,924,Incorrect
2,relearn,17,549,C,70.07682648097556,35.942403718971455,3.503841324048778,0.5645819573793959,D,4989,Incorrect
2,relearn,17,550,B,54.0857526943724,80.49938831744856,2.7042876347186198,1.2644814347828421,C,13358,Correct
2,relearn,17,551,B,72.90339350542573,74.08991246248729,3.645169675271286,1.163801623486305,C,1381,Correct
2,relearn,17,552,A,28.78316041335613,71.04093063840669,1.4391580206678065,1.1159083289890026,C,960,Incorrect
2,relearn,17,553,A,10.441106231047241,63.77697482954166,0.5220553115523621,1.0018063779633462,A,467,Incorrect
2,relearn,17,554,D,58.43945899249617,42.880188403830175,2.9219729496248084,0.6735604243700956,A,6355,Incorrect
2,relearn,17,555,A,30.77401153200894,39.26000743539959,1.5387005766004471,0.61669475469466,A,1623,Incorrect
2,relearn,17,556,C,91.98529163608065,31.92588101299525,4.599264581804032,0.5014905662490388,C,1956,Incorrect
2,relearn,17,557,C,101.64247551413403,52.855802511445994,5.082123775706702,0.8302570043477584,C,3149,Incorrect
2,relearn,17,558,A,25.164360907338843,36.15015723644285,1.2582180453669423,0.5678453420006236,C,2197,Incorrect
2,relearn,17,559,D,30.499471666828672,18.079293613640026,1.5249735833414337,0.2839888799935218,A,685,Incorrect
2,relearn,17,560,B,32.3628035392579,61.861854993388114,1.618140176962895,0.9717237459233259,B,1461,Incorrect
2,relearn,17,561,C,85.13181508381976,37.2410423392396,4.256590754190988,0.5849809251249078,C,494,Incorrect
2,relearn,17,562,D,40.71234139254743,14.913662546753315,2.0356170696273717,0.23426326347498727,C,7703,Incorrect
2,relearn,17,563,C,100.28423844182564,54.79502828023858,5.014211922091282,0.8607182914922124,C,454,Incorrect
2,relearn,17,564,A,10.221751582874168,52.076766068737506,0.5110875791437084,0.8180199285212999,A,654,Correct
2,relearn,17,565,A,-0.750728429952499,55.1911063535368,-0.03753642149762495,0.8669398713188209,A,693,Correct
2,relearn,17,566,D,40.78726842852531,36.94014080009724,2.0393634214262653,0.5802543748007903,A,711,Incorrect
2,relearn,17,567,B,56.8608880809633,98.55961372166186,2.843044404048165,1.5481707920431034,C,573,Incorrect
2,relearn,17,568,C,74.57739182755603,65.48595190773743,3.7288695913778014,1.0286509271334119,D,468,Incorrect
2,relearn,17,569,C,88.54613660621774,52.59148397746033,4.4273068303108865,0.8261050985248735,C,639,Incorrect
2,relearn,17,570,A,26.527745426995207,63.368725597820614,1.3263872713497602,0.9953936140273035,C,4387,Correct
2,relearn,17,571,A,50.649714944727364,49.206051013364295,2.532485747236368,0.7729268418787492,C,519,Correct
2,relearn,17,572,B,53.963483138886,63.19946800738371,2.6981741569443,0.9927349220138991,C,661,Incorrect
2,relearn,17,573,C,65.27773986166389,44.208637099095064,3.2638869930831946,0.6944276476786713,C,6893,Correct
2,relearn,17,574,B,47.48156264006575,54.521991055502525,2.3740781320032873,0.8564294327952756,C,807,Incorrect
2,relearn,17,575,C,84.46933287972055,57.49036360107296,4.223466643986028,0.9030565197066843,C,2557,Incorrect
2,relearn,17,576,C,82.6170784835344,37.04938218141049,4.13085392417672,0.581970334405799,C,589,Incorrect
2,relearn,17,577,B,30.590526609629745,77.36062652592105,1.5295263304814872,1.2151778798546862,A,720,Incorrect
2,relearn,17,578,B,56.1548475233898,85.73891966944332,2.80774237616949,1.3467838008012427,C,566,Incorrect
2,relearn,17,579,A,25.81429207618335,58.748755210608216,1.2907146038091672,0.9228232888859592,B,331,Incorrect
2,relearn,17,580,B,43.25985060213522,56.238427787364905,2.1629925301067607,0.8833911579311284,C,400,Incorrect
2,relearn,17,581,C,67.6530143161172,34.67561686245351,3.38265071580586,0.5446833159688915,C,582,Correct
2,relearn,17,582,A,16.695395771321234,35.12130167461466,0.8347697885660617,0.5516841166274015,A,2763,Correct
2,relearn,17,583,C,70.64412571128209,47.74678514427754,3.5322062855641043,0.7500047472089629,C,14086,Incorrect
2,relearn,17,584,B,41.1315637164699,99.86461824496438,2.056578185823495,1.5686697551596465,A,1288,Incorrect
2,relearn,17,585,C,93.45370079174938,35.79609031300014,4.672685039587469,0.5622836717727902,C,1412,Incorrect
2,relearn,17,586,A,7.695565252518769,53.376047391323794,0.38477826262593845,0.8384289918112173,A,975,Correct
2,relearn,17,587,D,71.03946114041347,15.800963581733471,3.551973057020673,0.24820095554006869,C,660,Incorrect
2,relearn,17,588,B,68.20266705257094,61.81059162913192,3.4101333526285473,0.9709185028805979,C,543,Correct
2,relearn,17,589,B,35.47294494790414,62.67149768400601,1.7736472473952067,0.9844415835677153,A,671,Incorrect
2,relearn,17,590,C,97.3279944216898,42.88856659901904,4.86639972108449,0.673692028752374,C,3595,Correct
2,relearn,17,591,B,25.91067213691254,78.88326692018984,1.2955336068456271,1.2390954592381556,A,838,Incorrect
2,relearn,17,592,B,33.068969139299355,87.5509322349985,1.6534484569649677,1.3752468276220453,C,422,Incorrect
2,relearn,17,593,A,13.878136183283084,49.12218597670319,0.6939068091641541,0.7716094929634115,A,741,Incorrect
2,relearn,17,594,D,54.77138091028825,-0.637391706611016,2.7385690455144123,-0.010012125514741142,C,557,Correct
2,relearn,17,595,C,74.09559325932611,59.16906690613882,3.7047796629663052,0.9294255295604434,C,589,Correct
2,relearn,17,596,A,17.2074594932188,41.32388487237649,0.86037297466094,0.6491140656642418,C,886,Incorrect
2,relearn,17,597,B,58.60095897462519,88.85748483015684,2.9300479487312594,1.395770107794436,A,1000,Incorrect
2,relearn,17,598,A,12.419537427457525,28.04400030718243,0.6209768713728763,0.44051412671157103,A,789,Incorrect
2,relearn,17,599,D,54.769007630758004,6.868343353865594,2.7384503815379,0.10788768511418216,C,637,Incorrect
2,relearn,17,600,C,82.31251288406833,38.46171544148964,4.1156256442034165,0.6041552133772247,C,5500,Correct
2,relearn,17,601,B,62.30966006693939,58.001767426852666,3.115483003346969,0.9110896322171207,C,4502,Incorrect
2,relearn,17,602,A,9.780131424051486,56.12091079398295,0.48900657120257435,0.8815452053157248,A,2892,Correct
2,relearn,17,603,B,55.300621725106396,67.89333319944315,2.76503108625532,1.066465984035473,C,1047,Incorrect
2,relearn,17,604,D,41.011304140833595,39.42950039798184,2.05056520704168,0.6193571439250779,D,1171,Correct
2,relearn,17,605,D,60.20851095410535,25.88514773749952,3.0104255477052675,0.4066029498460747,D,631,Correct
2,relearn,17,606,A,17.64931912001865,55.288567501292206,0.8824659560009325,0.8684707874478148,A,598,Correct
2,relearn,17,607,D,37.6615152993888,32.89344923474062,1.8830757649694403,0.5166890923354497,D,625,Correct
2,relearn,17,608,C,83.80089142626048,63.857443572022405,4.190044571313024,1.0030703780144516,C,778,Correct
2,relearn,17,609,C,72.38723298485657,52.06224317216179,3.619361649242828,0.8177918033953443,C,638,Correct
2,relearn,17,610,D,62.32124834112244,38.87291409406555,3.116062417056122,0.6106143067077172,D,1220,Correct
2,relearn,17,611,A,20.03060416086274,37.28845490920763,1.001530208043137,0.5857256800324048,A,692,Correct
2,relearn,17,612,A,28.723268665578363,49.33504974194232,1.4361634332789182,0.774953149168865,A,798,Correct
2,relearn,17,613,A,22.571486615960282,72.96268156365718,1.128574330798014,1.1460951219329842,A,765,Correct
2,relearn,17,614,A,20.562160990054558,67.90051280444976,1.028108049502728,1.0665787610071953,A,1742,Correct
2,relearn,17,615,D,35.97001586648706,38.377734419438895,1.798500793324353,0.6028360425676469,C,1070,Incorrect
2,relearn,17,616,D,45.654098413550436,1.337649114177509,2.2827049206775216,0.021011743150904785,D,838,Correct
2,relearn,17,617,C,80.89436542356164,66.66456456815536,4.044718271178081,1.0471645315103966,C,575,Correct
2,relearn,17,618,C,95.54862499314737,42.84041685462972,4.7774312496573685,0.6729356943361454,C,1109,Correct
2,relearn,17,619,C,95.07274234717278,64.29910044474661,4.753637117358639,1.0100079079482407,C,660,Correct
2,relearn,17,620,C,63.43990660659715,37.31235013824157,3.1719953303298576,0.586101025412349,C,14879,Correct
2,relearn,17,621,D,73.12260185488728,36.61248857909496,3.6561300927443643,0.5751076257486245,C,604,Incorrect
2,relearn,17,622,A,32.695078370865616,53.24172099869857,1.634753918543281,0.8363189977699441,A,799,Correct
2,relearn,17,623,A,13.306564918132388,42.93949875358719,0.6653282459066193,0.6744920691654879,A,744,Correct
2,relearn,17,624,B,60.72475777098864,66.78653290829595,3.036237888549432,1.0490804057171776,C,956,Incorrect
2,relearn,17,625,C,55.3157837410037,68.11055452603566,2.765789187050185,1.0698780886546033,D,1515,Incorrect
2,relearn,17,626,D,26.45821963520821,35.232201029097226,1.3229109817604103,0.553426119614053,A,870,Incorrect
2,relearn,17,627,A,19.156760464393276,49.98020319110353,0.9578380232196637,0.7850871958504798,B,1257,Incorrect
2,relearn,17,628,A,23.435104193606588,52.55531833605647,1.1717552096803294,0.8255370099581397,A,860,Correct
2,relearn,17,629,A,38.79293915045069,44.25673170739824,1.9396469575225348,0.6951831160192838,A,694,Correct
2,relearn,17,630,C,93.34570807103806,67.09813794720142,4.667285403551904,1.0539750862224126,C,615,Correct
2,relearn,17,631,D,40.30747998198525,46.36496360245148,2.0153739990992623,0.7282991451870986,C,876,Incorrect
2,relearn,17,632,D,48.16395334046012,38.93252833457977,2.408197667023006,0.6115507250079614,C,3262,Incorrect
2,relearn,17,633,B,60.94912832604829,56.16134274631832,3.0474564163024143,0.8821803089378601,C,560,Incorrect
2,relearn,17,634,D,66.16865780730656,28.896392027994523,3.308432890365328,0.4539034645519913,C,588,Incorrect
2,relearn,17,635,A,7.5501668872815415,66.34807675372255,0.3775083443640771,1.0421931525465324,A,694,Correct
2,relearn,17,636,B,65.15584007654931,54.60073225094625,3.2577920038274657,0.8576662966009801,C,814,Incorrect
2,relearn,17,637,B,52.39536264577277,101.46161191969239,2.619768132288639,1.593755273141421,D,1357,Incorrect
2,relearn,17,638,D,39.9752979679694,12.827924657082837,1.9987648983984698,0.201500569317474,C,910,Incorrect
2,relearn,17,639,B,33.30680832988145,70.60191078349922,1.6653404164940724,1.1090122212342157,A,733,Incorrect
2,relearn,17,640,D,54.29621994740639,8.328662578826894,2.7148109973703196,0.13082632585935394,C,887,Incorrect
2,relearn,17,641,D,45.538108407402376,3.8965349223819707,2.276905420370119,0.061206627433056375,B,1550,Incorrect
2,relearn,17,642,A,51.71330770541667,51.11622358035874,2.5856653852708336,0.802931762396542,C,828,Incorrect
2,relearn,17,643,B,30.99203628134634,64.26094039482753,1.549601814067317,1.0094084912858088,A,1883,Incorrect
2,relearn,17,644,D,37.67666664199362,6.040692951984457,1.883833332099681,0.09488698300273007,C,863,Incorrect
2,relearn,17,645,C,62.032183306853206,72.67640064001432,3.1016091653426603,1.1415982317000877,C,876,Correct
2,relearn,17,646,B,60.3332395238471,81.12691500273142,3.016661976192355,1.274338600904923,C,694,Incorrect
2,relearn,17,647,A,8.167337541099556,49.52194830256032,0.4083668770549778,0.777888944893885,A,742,Correct
2,relearn,17,648,B,39.7158953694917,63.67539359511056,1.985794768474585,1.0002107436641896,A,1503,Incorrect
2,relearn,17,649,C,84.98107100527783,68.86679946849648,4.249053550263891,1.0817571564323498,C,636,Correct
2,relearn,17,650,B,25.513152241741135,83.87047010445845,1.2756576120870569,1.3174342636664451,A,789,Incorrect
2,relearn,17,651,A,33.75178733749681,35.4490491872237,1.6875893668748403,0.556832362516626,B,1190,Incorrect
2,relearn,17,652,D,35.67396854142743,7.459432757956353,1.7836984270713714,0.11717249576171364,B,878,Incorrect
2,relearn,17,653,C,50.14758838783232,42.29910084974577,2.507379419391616,0.6644327224150754,C,983,Correct
2,relearn,17,654,C,78.92415352720006,60.54516601862477,3.9462076763600034,0.9510412438724297,C,605,Correct
2,relearn,17,655,D,61.55127712576069,42.02244508617768,3.0775638562880347,0.6600870238430816,C,643,Incorrect
2,relearn,17,656,D,44.553051927970884,41.05111351511057,2.2276525963985443,0.6448293832037603,D,662,Correct
2,relearn,17,657,A,-0.16252494734743195,52.638603735558235,-0.008126247367371598,0.8268452539542699,A,734,Correct
2,relearn,17,658,A,24.184729053582096,50.02570061212738,1.2092364526791046,0.7858018676687089,D,1559,Incorrect
2,relearn,17,659,B,50.94166035493879,87.75747897457924,2.5470830177469397,1.3784912562204945,C,494,Incorrect
2,relearn,17,660,A,40.680306716738045,44.643480229236225,2.0340153358369024,0.7012581475942485,C,1261,Incorrect
2,relearn,17,661,A,17.33212662328988,33.62512209730754,0.866606331164494,0.528182182784806,B,1758,Incorrect
2,relearn,17,662,C,77.07499022116997,23.484046387595793,3.8537495110584983,0.36888653803916427,C,709,Correct
2,relearn,17,663,D,45.42753358236856,25.48415795531375,2.271376679118428,0.4003042170766778,C,3051,Incorrect
2,relearn,17,664,A,29.799936074697694,37.02769741726615,1.4899968037348847,0.5816297109271454,A,6070,Correct
2,relearn,17,665,B,26.625060325615685,61.86639481240453,1.3312530162807843,0.9717950572336788,A,3022,Incorrect
2,relearn,17,666,C,71.8531904631578,59.789300485198744,3.59265952315789,0.9391681358378651,C,688,Correct
2,relearn,17,667,A,38.657878244719505,44.72117143439633,1.9328939122359754,0.7024785181911462,B,1017,Incorrect
2,relearn,17,668,A,31.649521815631008,24.74266298894011,1.5824760907815505,0.38865684138151174,B,2481,Incorrect
2,relearn,17,669,A,3.5216854930048633,55.77077773333842,0.17608427465024318,0.8760453280602261,A,730,Correct
2,relearn,17,670,D,28.674221202704306,18.83393593656723,1.4337110601352154,0.2958427738825021,A,903,Incorrect
2,relearn,17,671,A,35.09660169287986,46.69226190251352,1.7548300846439928,0.7334403348621353,A,3763,Correct
2,relearn,17,672,B,66.34305508290882,62.290730285714446,3.317152754145441,0.9784605032617185,C,614,Incorrect
2,relearn,17,673,D,36.07231198222044,34.498449561083106,1.803615599111022,0.5419003785066836,C,1125,Incorrect
2,relearn,17,674,C,77.32915454035424,71.12071023148702,3.866457727017712,1.1171615039066403,C,688,Correct
2,relearn,17,675,D,68.39883839299502,8.238216464627225,3.4199419196497507,0.12940560161977682,C,700,Incorrect
2,relearn,17,676,A,49.435637156711394,45.04145847186507,2.4717818578355697,0.7075095752109053,D,699,Incorrect
2,relearn,17,677,D,62.807312832771565,32.03602659382961,3.140365641638578,0.5032207289869118,B,302,Incorrect
2,relearn,17,678,B,69.13576753325137,88.75371842104161,3.4567883766625687,1.3941401488516072,C,2749,Incorrect
2,relearn,17,679,D,47.49708163312136,33.349437337866554,2.374854081656068,0.5238517367099735,C,1309,Incorrect
2,relearn,17,680,B,29.5973822429181,62.69819152596685,1.479869112145905,0.9848608894567163,A,8086,Incorrect
2,relearn,17,681,D,35.3683915818619,36.289453861115945,1.7684195790930948,0.570033408264338,B,2798,Incorrect
2,relearn,17,682,D,37.516023876569534,15.537568119759282,1.8758011938284767,0.24406354929843366,A,784,Incorrect
2,relearn,17,683,D,38.26421753653073,48.92676214356882,1.9132108768265366,0.768539782570855,B,1102,Incorrect
2,relearn,17,684,D,68.90724896798618,38.10129604898909,3.4453624483993086,0.5984937587987696,C,565,Incorrect
2,relearn,17,685,C,63.94446887080289,44.964686674174516,3.1972234435401448,0.7063036466327676,C,2063,Correct
2,relearn,17,686,D,63.56813688909561,45.393414738227,3.1784068444547806,0.7130380913148429,C,580,Incorrect
2,relearn,17,687,B,34.96350542201817,59.632764515761096,1.7481752711009084,0.9367092745798259,D,1445,Incorrect
2,relearn,17,688,A,23.957516213655996,29.185852857719304,1.1978758106827998,0.45845030463281816,B,5599,Incorrect
2,relearn,17,689,C,90.53389783103798,58.1371152761121,4.526694891551899,0.9132156712616835,C,630,Correct
2,relearn,17,690,B,44.6072924945491,59.225064750869606,2.230364624727455,0.9303051416485589,D,2639,Incorrect
2,relearn,17,691,C,59.96781144943511,37.88993091507576,2.9983905724717554,0.5951736430391339,C,659,Correct
2,relearn,17,692,B,30.239985599980518,66.19839818650634,1.511999279999026,1.039842007110701,A,893,Incorrect
2,relearn,17,693,B,46.17126944605437,89.46449080943219,2.308563472302718,1.4053049354203184,B,1422,Correct
2,relearn,17,694,B,27.002929170247867,78.12340735530975,1.3501464585123932,1.2271596131042195,B,509,Correct
2,relearn,17,695,C,78.47156473825956,59.39352797636031,3.9235782369129777,0.9329513558065671,B,575,Incorrect
2,relearn,17,696,B,51.64561395809727,81.93725575245543,2.5822806979048636,1.28706740363611,B,541,Correct
2,relearn,17,697,A,30.555142256199712,69.73042381782355,1.5277571128099856,1.0953229359888859,B,791,Incorrect
2,relearn,17,698,A,13.65275463797649,40.219184754658,0.6826377318988244,0.631761476793021,B,902,Incorrect
2,relearn,17,699,B,36.612252511691494,94.43275342277235,1.830612625584575,1.4833462220561902,A,565,Incorrect
2,relearn,17,700,B,60.54480262012872,81.01049612964918,3.0272401310064363,1.2725098975228513,C,501,Incorrect
2,relearn,17,701,B,75.86370133380497,68.75629232520402,3.7931850666902482,1.0800213142846662,C,567,Incorrect
2,relearn,17,702,C,73.55000044755445,76.65364740147479,3.6775000223777226,1.2040726777366777,D,487,Incorrect
2,relearn,17,703,A,22.771585066449642,48.933949300405615,1.138579253322482,0.7686526781664483,A,755,Correct
2,relearn,17,704,C,71.7012940941186,41.70943028375355,3.5850647047059296,0.655170198824279,A,461,Incorrect
2,relearn,17,705,B,71.41464382237987,90.36915431058641,3.5707321911189935,1.4195153564663032,C,565,Incorrect
2,relearn,17,706,A,6.212274408534508,46.17153742130184,0.3106137204267254,0.7252608138385404,A,605,Correct
2,relearn,17,707,C,58.03641604285629,65.42690531522909,2.9018208021428142,1.0277234254271934,A,519,Incorrect
2,relearn,17,708,A,42.32222986257616,69.34683234294836,2.116111493128808,1.089297495191648,A,751,Correct
2,relearn,17,709,A,31.591672206656952,69.09356728766906,1.5795836103328476,1.0853192170062658,A,999,Correct
2,relearn,17,710,A,3.193093505950607,45.343839493990465,0.15965467529753036,0.7122593651993759,A,587,Correct
2,relearn,17,711,D,54.78814432460383,28.906478500212444,2.7394072162301915,0.4540619024870936,C,725,Incorrect
2,relearn,17,712,B,32.59253704690376,94.8053805875514,1.629626852345188,1.489199435873179,A,431,Incorrect
2,relearn,17,713,D,46.837889456060864,26.304399026451485,2.341894472803043,0.4131885336929724,C,5107,Incorrect
2,relearn,17,714,C,70.47646120382126,29.203406788990122,3.523823060191063,0.45872604114042825,C,1582,Correct
2,relearn,17,715,B,60.69590808834214,85.91416196033182,3.034795404417107,1.3495365002695106,A,4454,Incorrect
2,relearn,17,716,C,92.66088666189245,36.08140013385888,4.633044333094622,0.5667653079588242,A,660,Incorrect
2,relearn,17,717,B,53.701655290203156,66.34015964457869,2.685082764510158,1.0420687908869124,C,541,Incorrect
2,relearn,17,718,B,27.381891413169317,79.55379811175789,1.3690945706584658,1.2496281385653207,A,661,Incorrect
2,relearn,17,719,A,9.336179640698195,41.71151474109807,0.46680898203490967,0.6552029414036803,A,671,Correct
2,relearn,17,720,A,22.18012595570281,66.71791882581525,1.1090062977851405,1.0480026182299067,B,814,Incorrect
2,relearn,17,721,B,39.00140694595594,93.65849468210993,1.9500703472977972,1.4711841941979764,A,556,Incorrect
2,relearn,17,722,D,31.511190293803935,18.56406257525673,1.5755595146901968,0.2916036130360388,A,911,Incorrect
2,relearn,17,723,C,90.06127943781831,69.51094949249202,4.503063971890915,1.0918754413483205,C,597,Correct
2,relearn,17,724,D,55.03332344484255,18.85071808720192,2.7516661722421274,0.2961063872882289,C,1117,Incorrect
2,relearn,17,725,C,92.92913341320849,46.70002655166851,4.646456670660425,0.7335623016858502,C,579,Correct
2,relearn,17,726,B,58.425512731912974,63.71779704668339,2.9212756365956487,1.0008768155239296,C,848,Incorrect
2,relearn,17,727,C,71.04760686092752,26.887810185728824,3.552380343046376,0.42235273475301244,C,637,Correct
2,relearn,17,728,B,31.468715075570838,60.22225217773955,1.573435753778542,0.9459689251210924,A,829,Incorrect
2,relearn,17,729,C,83.94133898490341,32.940812612648514,4.19706694924517,0.517433074535873,C,613,Correct
2,relearn,17,730,D,61.34210381374636,47.55341693053822,3.067105190687318,0.7469673264103569,C,806,Incorrect
2,relearn,17,731,B,45.257966034903845,53.2275408404979,2.2628983017451922,0.8360962563657944,C,516,Incorrect
2,relearn,17,732,A,19.429016971912535,75.93376050943004,0.9714508485956267,1.1927647208793608,B,902,Incorrect
2,relearn,17,733,D,70.5977749150796,32.40557860140249,3.5298887457539796,0.5090256383474633,A,470,Incorrect
2,relearn,17,734,D,72.2380347505343,16.251000105213606,3.6119017375267153,0.25527011272013006,C,1600,Incorrect
2,relearn,17,735,D,46.026249413155575,51.25543199615025,2.3013124706577788,0.8051184430783842,B,5186,Incorrect
2,relearn,17,736,A,19.81211263126958,62.56086029451287,0.9906056315634791,0.9827036955174951,B,662,Incorrect
2,relearn,17,737,D,47.286123171595136,32.52767934027688,2.364306158579757,0.5109435922686917,A,493,Incorrect
2,relearn,17,738,D,65.56368031927178,8.291284175256095,3.278184015963589,0.1302391872690493,C,575,Incorrect
2,relearn,17,739,B,32.93631452399083,78.09226688574003,1.6468157261995415,1.2266704597520717,A,820,Incorrect
2,relearn,17,740,C,92.70157493275903,37.77749296418688,4.6350787466379515,0.5934074718366479,C,695,Correct
2,relearn,17,741,B,68.08329633178964,68.5467853614275,3.404164816589482,1.0767303865932851,C,523,Incorrect
2,relearn,17,742,D,47.710057459976824,15.843089719958826,2.3855028729988415,0.2488626713719331,C,1016,Incorrect
2,relearn,17,743,C,60.91082139198119,47.64838019333749,3.0455410695990595,0.7484590058542123,C,909,Correct
2,relearn,17,744,D,67.60610107175657,12.767253151006106,3.3803050535878287,0.20054754352860962,C,533,Incorrect
2,relearn,17,745,C,88.3599148243639,41.10374239459262,4.417995741218195,0.6456560757094976,C,845,Correct
2,relearn,17,746,B,53.85413245871625,68.02521370883973,2.6927066229358125,1.068537558232833,B,1084,Correct
2,relearn,17,747,D,25.268329915619574,20.93452020291386,1.2634164957809788,0.3288386743795064,A,1046,Incorrect
2,relearn,17,748,B,60.75080754196834,61.99079647074173,3.0375403770984173,0.9737491539133114,B,2934,Correct
2,relearn,17,749,A,29.845623165997026,72.08569111670612,1.4922811582998514,1.1323193882059348,B,7036,Incorrect
2,relearn,17,750,D,39.441998663914546,15.448770378332677,1.9720999331957274,0.24266871763782774,C,2599,Incorrect
2,relearn,17,751,A,10.340588962246564,37.63477475613138,0.5170294481123282,0.5911656594668445,A,757,Correct
2,relearn,17,752,D,31.896816499472482,29.3557620427568,1.5948408249736241,0.4611192318702743,B,4181,Incorrect
2,relearn,17,753,A,29.83951439723195,66.3384309554825,1.4919757198615975,1.0420416367020875,B,3094,Incorrect
2,relearn,17,754,B,36.431307037421426,52.60967358503489,1.8215653518710713,0.8263908202125131,B,1862,Correct
2,relearn,17,755,B,69.89195672308003,65.3622736873178,3.4945978361540018,1.0267081941900151,C,766,Incorrect
2,relearn,17,756,B,45.1268005409855,59.6340335388307,2.256340027049275,0.9367292083475893,C,748,Incorrect
2,relearn,17,757,A,46.050307848548584,47.490793456519754,2.3025153924274293,0.7459836391807634,A,5069,Correct
2,relearn,17,758,A,24.668413039931703,76.2829340990015,1.2334206519965851,1.198249526798487,A,1661,Correct
2,relearn,17,759,B,70.9740316698227,60.610043056758926,3.548701583491135,0.9520603300043744,A,790,Incorrect
2,relearn,17,760,C,90.96753582841468,35.94521800791376,4.548376791420734,0.564626164126727,C,662,Correct
2,relearn,17,761,D,58.383587841928986,39.12148530920004,2.9191793920964493,0.6145188542245192,A,1123,Incorrect
2,relearn,17,762,B,65.5074116304218,58.78006683730091,3.27537058152109,0.9233151307679078,C,637,Incorrect
2,relearn,17,763,A,22.54643049756716,28.20950525236145,1.1273215248783581,0.4431138723111071,A,808,Correct
2,relearn,17,764,D,48.1990041016706,14.36062106051132,2.40995020508353,0.22557610812344614,A,686,Incorrect
2,relearn,17,765,A,35.145525641046135,67.84078964820071,1.7572762820523067,1.0656406318625893,A,1821,Correct
2,relearn,17,766,D,60.094913653515974,49.817047120291235,3.0047456826757983,0.7825243462832175,A,693,Incorrect
2,relearn,17,767,D,74.70808186294029,25.36558071931785,3.7354040931470145,0.3984416102092393,C,679,Incorrect
2,relearn,17,768,B,60.941832926296996,74.78118305133096,3.04709164631485,1.1746600765040744,A,1187,Incorrect
2,relearn,17,769,B,62.28258270996672,67.7493233539765,3.1141291354983363,1.0642038826726596,C,1400,Incorrect
2,relearn,17,770,A,19.771553816208176,60.790904894001,0.9885776908104088,0.9549013011003467,A,867,Correct
2,relearn,17,771,B,68.03810878559989,93.28717945397199,3.4019054392799943,1.4653515882335553,B,2831,Correct
2,relearn,17,772,B,50.626597522019956,81.24768534974395,2.531329876100998,1.2762356570796531,B,1261,Correct
2,relearn,17,773,B,40.305899605238096,83.34668827959743,2.015294980261905,1.309206718001109,D,2679,Incorrect
2,relearn,17,774,C,97.74218933873415,49.673007290349325,4.887109466936708,0.7802617739253684,C,774,Correct
2,relearn,17,775,D,51.752315513751,26.895103124772508,2.58761577568755,0.42246729197162597,D,1475,Correct
2,relearn,17,776,C,83.61222725756119,44.22122212913578,4.180611362878059,0.6946253328682768,C,871,Correct
2,relearn,17,777,B,27.296686362505405,82.86800332729096,1.3648343181252702,1.301687552353359,A,2110,Incorrect
2,relearn,17,778,B,56.317248992931034,91.98701788176389,2.8158624496465516,1.444928698014912,B,1235,Correct
2,relearn,17,779,C,83.40311190602186,69.4833328404476,4.170155595301093,1.091441639992423,C,656,Correct
2,relearn,17,780,B,45.887511179891355,70.72632310192864,2.294375558994568,1.1109664853621857,D,565,Incorrect
2,relearn,17,781,B,68.2279418376642,85.74298894031098,3.4113970918832104,1.3468477207585592,B,1118,Correct
2,relearn,17,782,A,20.653448638228035,70.94117967565211,1.0326724319114018,1.114341444530111,A,846,Correct
2,relearn,17,783,A,5.692531392267341,51.45874564411312,0.2846265696133671,0.8083120863924578,A,734,Correct
2,relearn,17,784,B,31.030436147075378,71.21979064619751,1.5515218073537687,1.1187178554214858,B,1405,Correct
2,relearn,17,785,D,54.20944660310562,37.00492164238038,2.710472330155281,0.5812719498918406,C,863,Incorrect
2,relearn,17,786,B,32.57848943533854,91.78013329068732,1.6289244717669271,1.4416789624575765,B,1212,Correct
2,relearn,17,787,A,17.88097327270077,52.51612144047273,0.8940486636350385,0.8249213065620927,A,989,Correct
2,relearn,17,788,A,29.83859801488496,65.14006757751187,1.491929900744248,1.02321778877927,B,848,Incorrect
2,relearn,17,789,B,44.063556306891634,84.73501042200915,2.203177815344582,1.3310144312181926,B,2098,Correct
2,relearn,17,790,A,19.874467634364557,34.024607008111566,0.9937233817182277,0.5344572770898155,A,1054,Correct
2,relearn,17,791,C,89.50098767589571,42.09646140825161,4.475049383794786,0.6612496695114475,C,612,Correct
2,relearn,17,792,D,30.71814311314793,19.37002106035808,1.5359071556573967,0.3042635793155026,B,1791,Incorrect
2,relearn,17,793,D,32.25287146868743,27.815877606824255,1.6126435734343716,0.43693078371375954,A,740,Incorrect
2,relearn,17,794,C,76.12426133331431,65.66002111432972,3.8062130666657152,1.0313851998366448,C,671,Correct
2,relearn,17,795,A,24.134516481467056,39.16003032656446,1.206725824073353,0.6151243179414421,C,676,Incorrect
2,relearn,17,796,C,65.43574784005786,44.83234289481178,3.2717873920028926,0.7042247954077961,A,1248,Incorrect
2,relearn,17,797,C,76.76684039256698,34.12892649177584,3.8383420196283486,0.5360959237073453,C,621,Correct
2,relearn,17,798,C,59.88313619791134,32.18767201686338,2.994156809895567,0.5056027697216788,C,1063,Correct
2,relearn,17,799,D,46.54317831179181,6.512305187781607,2.3271589155895906,0.10229505067934698,D,877,Correct
2,relearn,17,800,C,87.36261658052355,69.6312211653801,4.368130829026177,1.093764664368221,C,691,Correct
2,relearn,17,801,D,42.21391236606295,39.8249290588901,2.1106956183031476,0.6255685228057191,D,758,Correct
2,relearn,17,802,A,20.646526294964538,31.658856572258244,1.032326314748227,0.49729615614229716,A,637,Correct
2,relearn,17,803,C,66.51755478309133,48.03629537248049,3.325877739154566,0.7545523632392704,C,743,Correct
2,relearn,17,804,C,81.25691249580916,71.04773861766708,4.062845624790458,1.1160152684771538,C,860,Correct
2,relearn,17,805,B,61.470998959961676,70.26407714683558,3.0735499479980835,1.1037055428788256,C,1621,Incorrect
2,relearn,17,806,D,59.95020083821831,10.143874509533294,2.9975100419109153,0.1593396081904328,C,621,Incorrect
2,relearn,17,807,C,82.59627708983544,33.861295640730845,4.129813854491772,0.5318919881297606,D,470,Incorrect
2,relearn,17,808,B,58.48349297532664,51.314674713022555,2.9241746487663316,0.806049025498908,C,733,Incorrect
2,relearn,17,809,A,50.24940780826749,47.473965935129,2.512470390413375,0.745719313092867,D,1431,Incorrect
2,relearn,17,810,D,66.04832200013279,19.334423422686996,3.302416100006639,0.3037044129305395,C,815,Incorrect
2,relearn,17,811,B,35.72811919566515,63.7947379104574,1.7864059597832576,1.0020853997858963,B,869,Correct
2,relearn,17,812,D,67.39836210222713,31.32284982000726,3.3699181051113563,0.4920181744201559,C,701,Incorrect
2,relearn,17,813,B,33.16979576577852,87.08774089339244,1.658489788288926,1.3679710350420653,A,588,Incorrect
2,relearn,17,814,A,24.886476263253822,48.75603155596158,1.2443238131626913,0.7658579527720051,B,653,Incorrect
2,relearn,17,815,B,61.66569689710376,58.25947444034307,3.083284844855188,0.9151376845189206,A,768,Incorrect
2,relearn,17,816,B,43.876116806623386,61.57685663898329,2.1938058403311693,0.9672470022409089,C,923,Incorrect
2,relearn,17,817,D,42.40440337526701,22.748842829909083,2.1202201687633506,0.3573379875605561,C,767,Incorrect
2,relearn,17,818,B,66.64758197012137,83.80995557085535,3.332379098506068,1.3164837035954309,D,1054,Incorrect
2,relearn,17,819,A,40.71698209727255,43.59386283315658,2.0358491048636274,0.6847707960912292,B,4620,Incorrect
2,relearn,17,820,A,29.49643007775502,75.95846840495244,1.474821503887751,1.1931528315946551,D,254,Incorrect
2,relearn,17,821,C,58.158579196461886,55.063509994520615,2.9079289598230944,0.8649355923982706,C,782,Correct
2,relearn,17,822,D,37.01564185314835,34.81981121744552,1.8507820926574174,0.5469483156005516,B,2516,Incorrect
2,relearn,17,823,C,60.81121793193947,57.161033851972874,3.0405608965969737,0.8978834201047773,C,588,Correct
2,relearn,17,824,A,32.98117866315795,55.614281299539904,1.6490589331578973,0.8735870878265539,D,423,Incorrect
2,relearn,17,825,D,48.46331098343081,45.97906525043098,2.4231655491715403,0.7222374680483985,C,1055,Incorrect
2,relearn,17,826,B,47.11129188550071,91.27874338199516,2.3555645942750356,1.4338031481889197,B,1404,Correct
2,relearn,17,827,C,69.97142729308831,61.36345448635421,3.4985713646544156,0.96389488906611,C,641,Correct
2,relearn,17,828,B,37.967924591969144,81.27192185547545,1.898396229598457,1.2766163632214274,B,1003,Correct
2,relearn,17,829,C,50.51761482297964,47.63121869025141,2.5258807411489816,0.7481894335941132,B,1383,Incorrect
2,relearn,17,830,C,97.4806789691766,63.47734692750304,4.8740339484588295,0.9970998338840711,C,567,Correct
2,relearn,17,831,A,4.567977847120794,66.82682609953255,0.2283988923560397,1.0497133296850705,A,619,Correct
2,relearn,17,832,C,77.84411560424388,68.91587687853124,3.892205780212194,1.082528062586462,C,574,Correct
2,relearn,17,833,D,24.53975526905265,24.70278246225699,1.2269877634526325,0.38803039953326673,B,1284,Incorrect
2,relearn,17,834,C,70.11193332728166,51.79386434969028,3.505596666364083,0.8135761187100665,C,535,Correct
2,relearn,17,835,B,63.48383080246985,90.91571646074934,3.174191540123493,1.4281007346447134,D,1437,Incorrect
2,relearn,17,836,A,48.6751941535167,43.14395416212655,2.433759707675835,0.6777036472127577,C,431,Incorrect
2,relearn,17,837,A,13.224627745879415,38.278492275827375,0.6612313872939707,0.6012771506211646,B,468,Incorrect
2,relearn,17,838,A,48.456173481675435,51.9901502982159,2.4228086740837718,0.8166593711795213,C,1089,Incorrect
2,relearn,17,839,B,61.75380310565693,77.39044867543302,3.0876901552828464,1.2156463250837917,C,814,Incorrect
2,relearn,17,840,C,68.07883705793606,71.15590475412178,3.403941852896803,1.1177143381754202,C,707,Correct
2,relearn,17,841,D,45.622962531544374,39.9608909404248,2.281148126577219,0.6277042070467073,D,1814,Correct
2,relearn,17,842,A,10.648141059694462,34.20580886788523,0.532407052984723,0.5373035892472242,A,983,Correct
2,relearn,17,843,A,26.44756443392483,33.61999826358359,1.3223782216962414,0.528101697792879,D,2235,Incorrect
2,relearn,17,844,A,16.333672567561706,26.34362962940684,0.8166836283780853,0.4138047665631746,A,814,Correct
2,relearn,17,845,B,64.55320353881284,55.95684171388605,3.227660176940642,0.8789680142321565,C,685,Incorrect
2,relearn,17,846,C,101.38296512744168,53.90792479027557,5.069148256372085,0.8467837024570041,C,639,Correct
2,relearn,17,847,D,37.61690507760066,12.682435872748034,1.8808452538800333,0.19921523683724437,D,1383,Correct
2,relearn,17,848,C,88.66000771821089,70.46020659660563,4.433000385910544,1.1067863370715767,C,876,Correct
2,relearn,17,849,A,24.358067240849447,28.46324330736853,1.2179033620424724,0.4470995803588391,A,670,Correct
2,relearn,17,850,D,68.22698588296598,41.19416658384026,3.411349294148299,0.6470764555527335,C,683,Incorrect
2,relearn,17,851,B,35.61314124712503,52.847348503274006,1.7806570623562517,0.8301242090979258,A,669,Incorrect
2,relearn,17,852,A,45.75216663277055,64.51275617037926,2.287608331638528,1.0133640042384653,C,704,Incorrect
2,relearn,17,853,D,35.12150300106706,33.289661988188044,1.756075150053353,0.5229127877128947,B,901,Incorrect
2,relearn,17,854,D,66.132987822518,37.8971769130138,3.3066493911259,0.5952874629085844,C,588,Incorrect
2,relearn,17,855,B,51.53726773477158,60.91169550392385,2.576863386738579,0.9567986755641281,C,1461,Incorrect
2,relearn,17,856,A,24.45838570813078,25.584132219612712,1.222919285406539,0.40187460914802614,A,892,Correct
2,relearn,17,857,B,58.67100524182479,68.5424151269648,2.9335502620912393,1.0766617391108726,C,671,Incorrect
2,relearn,17,858,A,32.182612058168864,59.68916184153585,1.6091306029084433,0.9375951617015061,D,540,Incorrect
2,relearn,17,859,C,70.0673050567057,23.83576906009574,3.5033652528352857,0.37441138485929837,C,888,Correct
2,relearn,17,860,C,98.00007284849575,49.9177238687906,4.900003642424787,0.784105772950582,C,492,Correct
2,relearn,17,861,B,53.54403504425825,90.51137277139652,2.6772017522129126,1.4217493188247328,D,821,Incorrect
2,relearn,17,862,D,30.35484212247407,35.59383989858535,1.5177421061237035,0.5591067296922351,A,614,Incorrect
2,relearn,17,863,D,28.270125359942043,26.81800461026943,1.413506267997102,0.4212562313377982,C,703,Incorrect
2,relearn,17,864,B,68.03286176355869,93.33864619458163,3.4016430881779343,1.4661600259045728,C,723,Incorrect
2,relearn,17,865,B,26.217217197999588,64.73567467162019,1.3108608598999794,1.016865599867704,B,1168,Correct
2,relearn,17,866,B,41.736592310515775,87.4561914131848,2.086829615525789,1.3737586422730206,B,620,Correct
2,relearn,17,867,C,64.45330378306033,71.89692766317779,3.222665189153017,1.1293542988115806,C,734,Correct
2,relearn,17,868,A,38.01900337240775,50.04801278364418,1.9009501686203876,0.786152346439323,A,4884,Correct
2,relearn,17,869,C,78.51985136091872,31.62979025121269,3.925992568045936,0.49683958343897927,C,783,Correct
2,relearn,17,870,A,18.138109383912308,49.40559742490245,0.9069054691956154,0.7760613095814416,B,1941,Incorrect
2,relearn,17,871,B,69.75765519967588,64.32612786822716,3.487882759983794,1.0104324537235005,C,734,Incorrect
2,relearn,17,872,B,74.02386954560792,77.80255088919563,3.701193477280396,1.222119611520215,C,775,Incorrect
2,relearn,17,873,A,14.345436518874115,47.89548643203019,0.7172718259437058,0.7523405415748783,A,692,Correct
2,relearn,17,874,A,15.690652917051953,70.01756598976631,0.7845326458525976,1.099833354678442,A,10268,Correct
2,relearn,17,875,C,88.42293209541675,41.96432486315766,4.421146604770837,0.659174073514758,C,693,Correct
2,relearn,17,876,D,53.84801535163457,47.95814957736982,2.6924007675817285,0.7533248519601272,C,1445,Incorrect
2,relearn,17,877,B,65.26994969060374,84.55722942591352,3.263497484530187,1.328221853861783,C,1510,Incorrect
2,relearn,17,878,A,26.3724771765755,64.87237741664299,1.318623858828775,1.01901292156515,A,587,Correct
2,relearn,17,879,B,42.25970019094175,74.65453598280746,2.1129850095470872,1.172670709003714,A,543,Incorrect
2,relearn,17,880,B,50.27722889169462,66.36677853763013,2.513861444584731,1.0424869194811979,C,1244,Incorrect
2,relearn,17,881,D,44.45054834604973,-0.9357049999752505,2.2225274173024867,-0.01469801976924742,D,589,Correct
2,relearn,17,882,C,85.70326098680206,38.58230747636875,4.285163049340103,0.606049468631513,C,686,Correct
2,relearn,17,883,A,10.630645851690916,52.09865900223705,0.5315322925845458,0.8183638219165383,A,639,Correct
2,relearn,17,884,D,45.78715195653594,11.282577897239763,2.2893575978267973,0.17722631917761508,D,2053,Correct
2,relearn,17,885,B,49.49542423194383,97.41722987378496,2.474771211597192,1.5302262685227552,D,1294,Incorrect
2,relearn,17,886,C,54.7406951248729,32.72946744547079,2.737034756243645,0.5141132724129867,C,775,Correct
2,relearn,17,887,A,41.532108492159864,37.62510857501266,2.076605424607993,0.5910138234488904,C,733,Incorrect
2,relearn,17,888,B,45.1444714063282,57.68313018403401,2.25722357031641,0.9060844901111245,D,3319,Incorrect
2,relearn,17,889,B,27.882416617508625,59.942738283388344,1.3941208308754311,0.9415783311357422,A,677,Incorrect
2,relearn,17,890,D,33.38814107322054,29.212018308102447,1.6694070536610268,0.4588613105663259,B,590,Incorrect
2,relearn,17,891,B,60.942959679074534,68.03161329603155,3.0471479839537268,1.0686380827133721,C,470,Incorrect
2,relearn,17,892,B,37.06485393451648,61.636017044529765,1.8532426967258238,0.9681762917181498,A,4547,Incorrect
2,relearn,17,893,C,70.9693943492851,59.43854996136704,3.548469717464255,0.9336585594933028,C,629,Correct
2,relearn,17,894,B,43.70848552313608,65.60662523626038,2.1854242761568043,1.0305464593452718,B,2238,Correct
2,relearn,17,895,A,29.149378876473342,64.27413944079316,1.4574689438236672,1.0096158214150088,B,686,Incorrect
2,relearn,17,896,D,39.16527038648456,34.75155802399244,1.958263519324228,0.5458761969448703,C,1117,Incorrect
2,relearn,17,897,B,54.20135024481114,101.12456925897717,2.7100675122405566,1.5884610194071747,C,813,Incorrect
2,relearn,17,898,B,55.601097477672646,98.44311348563474,2.7800548738836324,1.5463408106148822,C,831,Incorrect
