experiment,condition,subject,trial,cat,x,y,xt,yt,resp,rt,fb
2,new_learn,6,0,B,40.95835467709727,80.78117281600127,2.0479177338548635,1.2689076953355853,D,9559,Incorrect
2,new_learn,6,1,A,7.336119330835661,51.66010409354081,0.36680596654178305,0.811475017519759,B,20028,Incorrect
2,new_learn,6,2,B,34.09004416795718,68.75784664679888,1.7045022083978592,1.0800457295111847,D,7489,Incorrect
2,new_learn,6,3,D,25.667929982868547,13.938831195168033,1.2833964991434275,0.21895064841184061,C,1981,Incorrect
2,new_learn,6,4,C,68.31562051271648,63.854050333184404,3.4157810256358236,1.003017077143425,D,1957,Incorrect
2,new_learn,6,5,D,32.60812495435998,43.86465134117266,1.630406247717999,0.6890243320285284,B,1124,Incorrect
2,new_learn,6,6,C,94.205885978813,66.79776335576346,4.71029429894065,1.0492568131734799,D,1430,Incorrect
2,new_learn,6,7,D,64.13248757984226,29.40233356049385,3.2066243789921134,0.46185077556022053,D,1103,Correct
2,new_learn,6,8,D,48.90071965692358,-1.114833312938977,2.445035982846179,-0.017511760729531305,C,2701,Incorrect
2,new_learn,6,9,B,43.61215958710726,95.87059776549759,2.180607979355363,1.5059318281767462,A,918,Incorrect
2,new_learn,6,10,B,41.73787268198614,70.74479824950902,2.086893634099307,1.111256692301748,D,1245,Incorrect
2,new_learn,6,11,A,19.720871650146513,31.407495816021246,0.9860435825073256,0.49334779061632256,B,1190,Incorrect
2,new_learn,6,12,C,83.29113951474667,64.63739818205669,4.164556975737334,1.0153218763795377,C,5347,Correct
2,new_learn,6,13,B,61.424839591368396,53.911073422644435,3.0712419795684194,0.8468331610585984,C,696,Incorrect
2,new_learn,6,14,D,47.83015760662967,9.59201560631783,2.391507880331483,0.15067102880963368,D,772,Correct
2,new_learn,6,15,D,29.665292396093545,27.165335625199873,1.483264619804677,0.4267120941621451,B,1128,Incorrect
2,new_learn,6,16,C,64.65002242998952,61.117617618060954,3.232501121499476,0.960033292569052,D,867,Incorrect
2,new_learn,6,17,C,85.78899772698662,37.56036275565842,4.289449886349331,0.5899967984967208,C,577,Correct
2,new_learn,6,18,B,66.87591649859067,95.07840185569094,3.343795824929533,1.4934880439244842,B,1282,Correct
2,new_learn,6,19,C,56.34817333860265,66.284543931033,2.8174086669301324,1.041195181301416,D,3303,Incorrect
2,new_learn,6,20,A,42.687629463012414,49.20328431685818,2.1343814731506203,0.7728833827116576,A,901,Correct
2,new_learn,6,21,B,56.901748167888485,87.37282259114545,2.8450874083944244,1.372449087878734,C,1005,Incorrect
2,new_learn,6,22,D,74.55508524090686,24.83386425349423,3.727754262045343,0.3900894274951182,D,788,Correct
2,new_learn,6,23,D,58.65753625744558,18.10983697598836,2.9328768128722786,0.2844686540073692,A,1016,Incorrect
2,new_learn,6,24,C,52.188319857448974,47.78494146052995,2.6094159928724485,0.7506041052230962,A,3043,Incorrect
2,new_learn,6,25,A,18.211309954657466,48.23265655334386,0.9105654977328733,0.7576367974555231,A,974,Correct
2,new_learn,6,26,B,40.59841904941289,55.11848885969021,2.0299209524706443,0.865799198392868,A,2892,Incorrect
2,new_learn,6,27,B,58.91857629322916,54.46181117918195,2.945928814661458,0.8554841295085625,C,1111,Incorrect
2,new_learn,6,28,B,56.37426575735708,76.3744490028419,2.818713287867854,1.199687039546482,C,699,Incorrect
2,new_learn,6,29,C,64.91999586266508,55.422939970787056,3.2459997931332536,0.8705815052628637,D,863,Incorrect
2,new_learn,6,30,A,16.226014722978235,46.07198518598503,0.8113007361489117,0.7236970509829418,A,973,Correct
2,new_learn,6,31,A,18.09786320410968,66.47981440553843,0.9048931602054838,1.0442624827422622,A,687,Correct
2,new_learn,6,32,D,59.1565259601201,43.17265194600937,2.957826298006005,0.6781544309478605,C,876,Incorrect
2,new_learn,6,33,D,28.760703826044086,38.2644079313162,1.4380351913022043,0.60105591425493,A,917,Incorrect
2,new_learn,6,34,A,24.550299073542895,54.87280984633519,1.2275149536771448,0.8619400814753814,A,724,Correct
2,new_learn,6,35,A,24.97639466350538,31.7247284723181,1.248819733175269,0.4983308695288273,A,975,Correct
2,new_learn,6,36,A,38.34692128178972,30.7487596713842,1.917346064089486,0.48300038745309354,B,1246,Incorrect
2,new_learn,6,37,B,59.38648616685285,65.6726590771033,2.969324308342642,1.031583716491674,C,1046,Incorrect
2,new_learn,6,38,C,59.610145634611705,51.55771167512539,2.9805072817305853,0.8098666411723733,D,629,Incorrect
2,new_learn,6,39,A,3.7121881031772475,34.06553385606755,0.18560940515886237,0.535100154514181,A,879,Correct
2,new_learn,6,40,C,59.17927011699326,33.24302649494014,2.958963505849663,0.522180239097974,D,1477,Incorrect
2,new_learn,6,41,D,45.522429800230654,2.0606283703553956,2.276121490011533,0.03236827475043609,C,812,Incorrect
2,new_learn,6,42,C,95.06009708132672,34.08899935809576,4.753004854066336,0.5354687497581041,D,974,Incorrect
2,new_learn,6,43,C,71.54382237398706,64.14435405463365,3.5771911186993526,1.0075771573364987,D,816,Incorrect
2,new_learn,6,44,D,53.095966408164145,20.370033728600006,2.654798320408207,0.31997174157573044,C,700,Incorrect
2,new_learn,6,45,A,50.48989509901703,45.06963080343047,2.5244947549508514,0.707952105160307,D,935,Incorrect
2,new_learn,6,46,B,67.79888441683036,65.86672358798256,3.389944220841518,1.0346320747001778,D,1100,Incorrect
2,new_learn,6,47,A,40.543589750548904,51.27033699453161,2.0271794875274454,0.8053525702454675,D,817,Incorrect
2,new_learn,6,48,D,41.932713764559544,6.214933622777206,2.0966356882279773,0.09762394905932534,C,682,Incorrect
2,new_learn,6,49,B,60.08654040456433,60.01321944660989,3.004327020228217,0.9426854466587086,D,624,Incorrect
2,new_learn,6,50,D,49.31387301645084,46.80744660659688,2.465693650822542,0.7352496519629063,D,508,Correct
2,new_learn,6,51,C,52.949224689478704,43.52664833941237,2.647461234473935,0.6837149932924214,D,605,Incorrect
2,new_learn,6,52,D,46.448664693179985,8.992766341932157,2.322433234658999,0.1412580433763181,C,724,Incorrect
2,new_learn,6,53,A,30.592310247902894,47.106360743990564,1.5296155123951447,0.7399449842533569,A,799,Correct
2,new_learn,6,54,C,90.9900343661663,70.94338385002493,4.549501718308315,1.1143760676201955,B,900,Incorrect
2,new_learn,6,55,C,53.421684499105865,49.68494409062918,2.6710842249552935,0.7804492767457012,B,580,Incorrect
2,new_learn,6,56,C,88.2515336360249,64.69924452680971,4.412576681801244,1.0162933564911751,B,345,Incorrect
2,new_learn,6,57,B,68.68625896340512,81.89955142164591,3.4343129481702563,1.2864751453927115,B,317,Correct
2,new_learn,6,58,B,41.04766422728785,57.79064997564525,2.052383211364392,0.9077734070483313,A,806,Incorrect
2,new_learn,6,59,C,53.971823962982214,50.18458728730673,2.698591198149111,0.7882976537261926,B,821,Incorrect
2,new_learn,6,60,A,34.8030190087658,54.00899238664225,1.7401509504382902,0.8483712685483117,C,388,Incorrect
2,new_learn,6,61,C,87.60216088811742,40.785677045979746,4.380108044405871,0.640659916896679,D,640,Incorrect
2,new_learn,6,62,D,46.06350289669276,6.253108790356258,2.303175144834638,0.0982236031894049,C,596,Incorrect
2,new_learn,6,63,A,47.34037205359279,53.531875801297794,2.3670186026796394,0.8408767387511918,D,404,Incorrect
2,new_learn,6,64,B,26.53460552569855,77.57647091640345,1.3267302762849276,1.2185683556119764,A,729,Incorrect
2,new_learn,6,65,B,36.871946556461246,63.75624607515489,1.8435973278230622,1.0014807714508485,A,570,Incorrect
2,new_learn,6,66,A,35.94266444577475,72.19797352611042,1.7971332222887377,1.1340831161684943,A,1166,Correct
2,new_learn,6,67,D,30.620199298586396,9.04438421795479,1.5310099649293198,0.14206885507685116,A,3959,Incorrect
2,new_learn,6,68,B,44.59422601897249,82.94443937976317,2.2297113009486247,1.3028882070579397,B,955,Correct
2,new_learn,6,69,B,45.912309359214156,73.61774118348532,2.2956154679607077,1.1563847743795612,B,845,Correct
2,new_learn,6,70,C,82.73929016707744,45.463329435681544,4.136964508353873,0.7141363088143486,D,839,Incorrect
2,new_learn,6,71,D,60.03638589042132,42.70591501444712,3.001819294521066,0.6708229443710856,C,524,Incorrect
2,new_learn,6,72,D,67.56519957392659,13.420686004453078,3.378259978696329,0.2108116427886257,B,488,Incorrect
2,new_learn,6,73,B,57.649501606792576,98.37287573653879,2.882475080339629,1.5452375186320593,C,788,Incorrect
2,new_learn,6,74,D,45.015911317240466,20.082991153917185,2.250795565862023,0.31546288735627515,D,542,Correct
2,new_learn,6,75,B,39.891421880466595,76.28524351259647,1.9945710940233297,1.1982858029824075,D,666,Incorrect
2,new_learn,6,76,D,57.20101912341916,21.212670648049748,2.8600509561709577,0.3332078513546646,D,590,Correct
2,new_learn,6,77,A,8.889374480005461,39.33991454209885,0.44446872400027304,0.6179499325915401,A,767,Correct
2,new_learn,6,78,C,87.45223063431904,40.23971978089587,4.372611531715952,0.6320840402308717,D,1324,Incorrect
2,new_learn,6,79,B,40.532909340182,85.63147878006133,2.0266454670091,1.3450961232573546,C,479,Incorrect
2,new_learn,6,80,D,55.797857295745345,14.11033971259397,2.7898928647872676,0.22164469790370764,C,557,Incorrect
2,new_learn,6,81,C,76.17718770028303,33.90798611767114,3.808859385014151,0.5326254004265019,C,646,Correct
2,new_learn,6,82,B,32.01484689330705,90.18202326213914,1.6007423446653524,1.4165759088310008,D,765,Incorrect
2,new_learn,6,83,D,47.69217674012043,42.32088408951142,2.3846088370060214,0.6647748927451711,B,373,Incorrect
2,new_learn,6,84,C,69.71164605395295,71.33743045680278,3.4855823026976473,1.120565737245322,D,563,Incorrect
2,new_learn,6,85,C,70.53040298221661,48.9574348439214,3.526520149110831,0.769021588221322,C,791,Correct
2,new_learn,6,86,B,36.8505101023415,76.00934670132955,1.842525505117075,1.1939520260052825,B,1278,Correct
2,new_learn,6,87,D,42.84106790216077,45.2437274120254,2.1420533951080385,0.7106868082931906,B,765,Incorrect
2,new_learn,6,88,C,75.83949167678735,69.14644831043948,3.7919745838393677,1.0861498701695151,A,774,Incorrect
2,new_learn,6,89,D,51.97627553169906,2.750216987988683,2.598813776584953,0.04320030742621547,D,679,Correct
2,new_learn,6,90,C,61.43220705152251,44.83566951181961,3.0716103525761254,0.7042770497855617,D,650,Incorrect
2,new_learn,6,91,D,24.44241327587462,25.13845839376764,1.2221206637937312,0.39487398106216537,A,1558,Incorrect
2,new_learn,6,92,D,52.38613224773195,25.53097338965098,2.6193066123865973,0.4010395921996201,D,711,Correct
2,new_learn,6,93,C,66.04756259189406,64.79701916546432,3.302378129594703,1.0178291969236986,C,948,Correct
2,new_learn,6,94,B,41.53465798980973,86.62918023605963,2.0767328994904863,1.3607679810805553,D,949,Incorrect
2,new_learn,6,95,D,70.18907071847627,22.870069243183043,3.5094535359238135,0.3592422076073687,C,792,Incorrect
2,new_learn,6,96,D,48.00897825249453,16.81036070369828,2.4004489126247264,0.2640565284546653,A,1140,Incorrect
2,new_learn,6,97,C,81.21506000626916,58.68658351329895,4.060753000313458,0.9218466981483192,D,903,Incorrect
2,new_learn,6,98,A,30.5898166205976,25.40458171252241,1.52949083102988,0.39905423637791004,A,686,Correct
2,new_learn,6,99,D,39.90961500028896,3.2040969707735805,1.995480750014448,0.05032983752385796,A,854,Incorrect
2,new_learn,6,100,B,47.57067852608956,51.636224539027836,2.378533926304478,0.8110999183546143,B,436,Correct
2,new_learn,6,101,A,36.30506507386841,68.38620658839866,1.8152532536934205,1.0742080211249356,C,888,Incorrect
2,new_learn,6,102,D,53.44805710026616,38.454153071892655,2.672402855013308,0.6040364239533768,B,550,Incorrect
2,new_learn,6,103,A,24.694891540366896,38.28447688058628,1.2347445770183447,0.6013711565728906,A,797,Correct
2,new_learn,6,104,A,10.438459679317829,54.29910681611352,0.5219229839658914,0.8529283753499486,A,663,Correct
2,new_learn,6,105,A,5.534249859308719,43.311358389264555,0.276712492965436,0.6803332266635409,A,717,Correct
2,new_learn,6,106,C,52.40253606522891,45.02080379248836,2.6201268032614458,0.7071851322659446,B,1624,Incorrect
2,new_learn,6,107,B,45.444037662541554,101.15244797190606,2.2722018831270776,1.5888989372058189,C,978,Incorrect
2,new_learn,6,108,C,57.04212878711387,33.24418159719865,2.8521064393556936,0.5221983834018213,D,399,Incorrect
2,new_learn,6,109,B,56.98027471338235,72.1381628463604,2.8490137356691174,1.13314361220795,C,1037,Incorrect
2,new_learn,6,110,A,4.863742022666372,39.044620100604156,0.2431871011333186,0.613311458351312,A,745,Correct
2,new_learn,6,111,C,96.15817919777203,57.41379879705611,4.807908959888602,0.90185384257757,B,1500,Incorrect
2,new_learn,6,112,A,15.089633975755262,64.31655114137767,0.7544816987877632,1.0102820228499214,A,743,Correct
2,new_learn,6,113,D,52.1046391200493,29.08305333278881,2.6052319560024646,0.45683553347124745,D,1598,Correct
2,new_learn,6,114,A,27.123965662271836,59.24168815282451,1.356198283113592,0.9305662614358547,A,828,Correct
2,new_learn,6,115,D,26.834051947848042,35.34427167858381,1.3417025973924022,0.5551865212596034,A,861,Incorrect
2,new_learn,6,116,C,80.56200843995246,63.92837830697869,4.028100421997624,1.0041846182255667,B,799,Incorrect
2,new_learn,6,117,A,28.88153447242118,69.79967369986731,1.444076723621059,1.0964107105923393,A,830,Correct
2,new_learn,6,118,D,50.725588680114775,21.466421341142638,2.536279434005739,0.3371937579209843,C,780,Incorrect
2,new_learn,6,119,D,38.298154511652605,27.898007438317308,1.9149077255826301,0.4382208760900552,A,815,Incorrect
2,new_learn,6,120,A,32.415043959880485,70.50594826301194,1.6207521979940243,1.1075048454873018,B,549,Incorrect
2,new_learn,6,121,A,13.209337696889353,52.77748535773983,0.6604668848444676,0.8290268013740917,A,542,Correct
2,new_learn,6,122,B,34.06473082732504,65.6468836078981,1.703236541366252,1.0311788363681844,A,869,Incorrect
2,new_learn,6,123,D,24.460476283075916,17.474015278529752,1.223023814153796,0.27448119013872435,A,714,Incorrect
2,new_learn,6,124,D,48.96364746332829,5.7149412539935724,2.4481823731664147,0.08977008729621724,D,12792,Correct
2,new_learn,6,125,D,62.44782987270211,14.547933065524886,3.122391493635105,0.2285183982178451,D,780,Correct
2,new_learn,6,126,B,34.245884935974686,56.07874643747314,1.7122942467987343,0.880882889152452,A,700,Incorrect
2,new_learn,6,127,D,67.68126241705076,36.3247434420924,3.3840631208525385,0.5705877357060574,D,759,Correct
2,new_learn,6,128,C,68.29821379731453,53.48209049732301,3.4149106898657267,0.8400947130250722,C,1015,Correct
2,new_learn,6,129,D,46.68913612400133,38.96489589910425,2.3344568062000666,0.6120591535225849,B,1158,Incorrect
2,new_learn,6,130,B,71.4470898934282,71.8642680730626,3.57235449467141,1.128841283169705,D,510,Incorrect
2,new_learn,6,131,B,59.081515040724184,83.44815615383384,2.9540757520362093,1.3108005716424913,C,517,Incorrect
2,new_learn,6,132,B,63.82015974326535,90.01850671591998,3.191007987163267,1.4140073969292883,C,485,Incorrect
2,new_learn,6,133,A,38.037819492661846,36.09322934795138,1.9018909746330923,0.5669511208192779,D,519,Incorrect
2,new_learn,6,134,B,73.62858176190353,66.31180638210753,3.681429088095177,1.041623418881489,C,342,Incorrect
2,new_learn,6,135,C,75.06989864270945,67.8936842570187,3.7534949321354727,1.0664714984349748,D,466,Incorrect
2,new_learn,6,136,A,14.058319578667591,30.687547469682254,0.7029159789333795,0.4820388684372091,B,288,Incorrect
2,new_learn,6,137,B,63.01353755535149,73.22207985831136,3.1506768777675744,1.1501697408171805,D,514,Incorrect
2,new_learn,6,138,D,72.74424129084458,33.00107666686449,3.6372120645422292,0.5183797000858751,C,430,Incorrect
2,new_learn,6,139,A,42.36092403854738,55.420972712948725,2.118046201927369,0.8705506036490006,B,326,Incorrect
2,new_learn,6,140,B,60.47970804921236,93.76562817709511,3.0239854024606183,1.4728670432019704,D,844,Incorrect
2,new_learn,6,141,C,73.62414072845861,71.07530836940667,3.6812070364229306,1.1164483331247856,B,529,Incorrect
2,new_learn,6,142,B,46.09886232590325,76.22714190509392,2.304943116295162,1.1973731450659488,C,428,Incorrect
2,new_learn,6,143,D,39.4274822015508,32.805342394301086,1.97137411007754,0.5153051133221704,A,654,Incorrect
2,new_learn,6,144,A,8.878868109580747,54.474530101832336,0.4439434054790374,0.8556839178783625,A,431,Correct
2,new_learn,6,145,D,29.11616969490248,12.277743371256912,1.455808484745124,0.19285834188900744,A,1222,Incorrect
2,new_learn,6,146,C,90.47544049601271,60.25973990011286,4.5237720248006354,0.9465577808871315,B,947,Incorrect
2,new_learn,6,147,C,85.76413677485262,57.48444519494737,4.288206838742631,0.9029635536006586,D,703,Incorrect
2,new_learn,6,148,A,26.676750952952016,57.21973602401213,1.3338375476476008,0.8988055116669187,A,701,Correct
2,new_learn,6,149,C,77.57475215275319,73.27825857742148,3.87873760763766,1.1510521940734029,B,1286,Incorrect
2,new_learn,6,150,D,45.35716170304281,40.46439916937963,2.2678580851521404,0.6356132958122399,C,928,Incorrect
2,new_learn,6,151,B,42.695637060689094,73.46871690469662,2.1347818530344544,1.1540439064823158,D,372,Incorrect
2,new_learn,6,152,B,47.13857034864855,58.795604079584066,2.3569285174324275,0.9235591891989768,C,647,Incorrect
2,new_learn,6,153,C,62.28519106381773,50.782865098286514,3.1142595531908865,0.7976953796050921,D,691,Incorrect
2,new_learn,6,154,B,58.8067480932918,74.13509107811835,2.94033740466459,1.164511287521134,B,495,Correct
2,new_learn,6,155,A,24.58558571593233,56.61927698114729,1.2292792857966164,0.8893735230776899,A,814,Correct
2,new_learn,6,156,D,41.74653675411712,16.63788860609486,2.0873268377058563,0.2613473430807647,C,1935,Incorrect
2,new_learn,6,157,D,30.208665700637134,40.44372267032251,1.5104332850318567,0.6352885101245408,A,1014,Incorrect
2,new_learn,6,158,A,48.136059652576584,48.013459237687734,2.4068029826288293,0.754193654072764,B,780,Incorrect
2,new_learn,6,159,A,36.28614695107391,72.07499466913495,1.8143073475536955,1.1321513688003892,C,655,Incorrect
2,new_learn,6,160,D,30.039702817022704,34.11554027728014,1.501985140851135,0.5358856535417499,D,469,Correct
2,new_learn,6,161,B,25.171901132754506,71.63055639163352,1.2585950566377253,1.1251701486625263,A,757,Incorrect
2,new_learn,6,162,C,64.85233243710564,38.111725255268766,3.2426166218552823,0.5986575803879247,C,1043,Correct
2,new_learn,6,163,B,37.98661226403819,83.16043040599325,1.8993306132019097,1.3062809861641684,A,679,Incorrect
2,new_learn,6,164,B,41.746595687385174,69.35243564765213,2.0873297843692584,1.089385511696114,A,677,Incorrect
2,new_learn,6,165,C,80.30526192016914,67.62964948299347,4.015263096008457,1.0623240499031252,C,916,Correct
2,new_learn,6,166,A,2.7132368213091524,50.79939437709702,0.13566184106545762,0.7979550209094933,A,816,Correct
2,new_learn,6,167,B,53.876298307426275,101.42833977196045,2.6938149153713136,1.593232635467002,C,1490,Incorrect
2,new_learn,6,168,C,79.72453124222584,71.3780286116365,3.986226562111292,1.1212034515701963,C,789,Correct
2,new_learn,6,169,D,28.349694144397922,27.803235928532374,1.417484707219896,0.43673220869550544,A,696,Incorrect
2,new_learn,6,170,B,39.379034160473,62.185945602027914,1.9689517080236498,0.976814549299327,B,421,Correct
2,new_learn,6,171,A,23.09813039065915,49.16366772326632,1.1549065195329575,0.7722610867147155,A,398,Correct
2,new_learn,6,172,A,15.992883756226362,43.43804014212664,0.7996441878113181,0.6823231389842179,D,252,Incorrect
2,new_learn,6,173,B,62.786142242953346,91.99669079370487,3.1393071121476677,1.445080639760375,A,262,Incorrect
2,new_learn,6,174,C,69.40437832599821,38.79651170537054,3.4702189162999106,0.6094141807925125,B,253,Incorrect
2,new_learn,6,175,B,35.18243810048579,62.9712997611274,1.7591219050242897,0.9891508635827926,C,335,Incorrect
2,new_learn,6,176,B,51.204820743679115,74.4465755223381,2.5602410371839555,1.1694040737294755,A,317,Incorrect
2,new_learn,6,177,A,32.15993271548711,75.26894854604896,1.6079966357743556,1.1823218789784777,B,346,Incorrect
2,new_learn,6,178,B,37.767131461390406,87.66788091136945,1.8883565730695204,1.3770838531347156,C,409,Incorrect
2,new_learn,6,179,D,67.82079659997885,7.811783093937503,3.3910398299989426,0.122707201896755,D,828,Correct
2,new_learn,6,180,B,38.172379715799075,90.47719453306594,1.9086189857899538,1.421212448312473,A,659,Incorrect
2,new_learn,6,181,C,71.10095693188443,23.713079411970003,3.555047846594221,0.37248418037318165,C,741,Correct
2,new_learn,6,182,B,48.86041465977432,83.63304079567855,2.443020732988716,1.3137047328053961,D,846,Incorrect
2,new_learn,6,183,C,65.19857604224961,33.67349467229238,3.259928802112481,0.5289420174158438,B,639,Incorrect
2,new_learn,6,184,B,47.5411313438975,60.50395050801896,2.3770565671948747,0.950393832145764,D,605,Incorrect
2,new_learn,6,185,D,67.53126665014734,26.367554291217022,3.3765633325073674,0.4141805742720871,C,342,Incorrect
2,new_learn,6,186,B,47.731691627300975,50.40343015518997,2.3865845813650486,0.7917352294563553,B,406,Correct
2,new_learn,6,187,A,41.70181088952165,60.79969362344714,2.0850905444760826,0.9550393541396586,A,1059,Correct
2,new_learn,6,188,D,48.51624524800912,31.40481365110935,2.425812262400456,0.49330565926840797,B,980,Incorrect
2,new_learn,6,189,D,24.252778957338016,23.76345850035987,1.2126389478669009,0.37327553324308244,A,648,Incorrect
2,new_learn,6,190,D,46.81009764655322,8.391062813497825,2.340504882327661,0.13180650645347633,A,639,Incorrect
2,new_learn,6,191,A,10.781580535371294,60.930410653378715,0.5390790267685647,0.9570926524443192,C,436,Incorrect
2,new_learn,6,192,B,32.993560463203195,95.46361924364226,1.64967802316016,1.4995390245045987,D,624,Incorrect
2,new_learn,6,193,B,43.219188044265195,83.06938153074373,2.1609594022132597,1.3048507937761606,B,514,Correct
2,new_learn,6,194,B,39.70784539365144,78.63825014958326,1.9853922696825719,1.235246744805436,A,615,Incorrect
2,new_learn,6,195,C,93.82310295932456,66.45377154022955,4.691155147966228,1.043853402370598,D,932,Incorrect
2,new_learn,6,196,C,84.3629903774806,66.00684556017097,4.21814951887403,1.0368331054923459,C,470,Correct
2,new_learn,6,197,A,4.97065044498855,57.17347734341857,0.2485325222494275,0.8980788820113313,A,708,Correct
2,new_learn,6,198,A,6.206103401355779,43.126358540321114,0.31030517006778896,0.6774272558317612,A,661,Correct
2,new_learn,6,199,D,58.85184934500002,16.566372806904333,2.942592467250001,0.26022397553400184,B,936,Incorrect
2,new_learn,6,200,C,58.0672788007762,44.74140229074287,2.90336394003881,0.7027963037395166,C,378,Correct
2,new_learn,6,201,C,49.06196161389697,51.92739751368901,2.453098080694849,0.8156736527452114,D,1118,Incorrect
2,new_learn,6,202,D,35.60301376583308,22.260999840474007,1.7801506882916542,0.3496749678019835,C,487,Incorrect
2,new_learn,6,203,A,24.756103620354313,71.59197492412821,1.2378051810177155,1.1245641123881294,B,357,Incorrect
2,new_learn,6,204,A,35.92232373299085,73.12457336305222,1.7961161866495423,1.1486381123712637,A,382,Correct
2,new_learn,6,205,A,14.167449963258944,68.05442849856456,0.7083724981629471,1.0689964630767113,A,830,Correct
2,new_learn,6,206,D,60.707245962352644,16.016709343427166,3.0353622981176325,0.2515898820399689,B,1086,Incorrect
2,new_learn,6,207,D,51.188743929687206,6.648364608179225,2.5594371964843603,0.10443226705721119,C,517,Incorrect
2,new_learn,6,208,C,50.74468117575262,42.510292021295136,2.537234058787631,0.667750105580288,D,367,Incorrect
2,new_learn,6,209,B,25.71663554426663,81.52999996542037,1.2858317772133316,1.2806702446927036,A,483,Incorrect
2,new_learn,6,210,C,86.72229278524485,69.3704611364874,4.3361146392622425,1.0896686554126254,B,382,Incorrect
2,new_learn,6,211,D,60.182242012045656,15.017134739287028,3.0091121006022825,0.235888600874561,C,557,Incorrect
2,new_learn,6,212,C,72.31374755120409,28.240739937020113,3.6156873775602043,0.44360450559041137,D,464,Incorrect
2,new_learn,6,213,D,45.07571439479528,24.96747723523271,2.253785719739764,0.39218821530438736,D,782,Correct
2,new_learn,6,214,C,70.61298388722237,61.206462654890515,3.5306491943611182,0.9614288671441102,B,939,Incorrect
2,new_learn,6,215,D,70.45049230678853,23.742921245054408,3.5225246153394267,0.3729529347911198,C,575,Incorrect
2,new_learn,6,216,D,61.328777412619125,47.30756768987644,3.0664388706309564,0.7431055355685885,C,711,Incorrect
2,new_learn,6,217,C,87.76318676483481,57.92981540569279,4.38815933824174,0.9099594125116865,C,516,Correct
2,new_learn,6,218,C,53.36982261669159,60.52433670596219,2.6684911308345796,0.9507140577942295,B,1110,Incorrect
2,new_learn,6,219,D,67.6332453753967,9.175976836590554,3.3816622687698352,0.14413590709671498,D,701,Correct
2,new_learn,6,220,C,57.112719314346464,30.45484944956163,2.8556359657173234,0.47838365648462994,A,955,Incorrect
2,new_learn,6,221,D,67.02898565306832,6.067595287024357,3.351449282653416,0.09530956389335886,D,542,Correct
2,new_learn,6,222,D,36.735939505624074,42.41713566045157,1.8367969752812037,0.6662868088859815,B,1244,Incorrect
2,new_learn,6,223,A,33.36229908892748,58.200857684427135,1.6681149544463738,0.9142169346701069,C,614,Incorrect
2,new_learn,6,224,B,63.69681964279139,82.27966938271825,3.1848409821395696,1.2924460243627236,A,574,Incorrect
2,new_learn,6,225,C,58.35310837405204,62.439199945854725,2.9176554187026023,0.980792659229607,D,584,Incorrect
2,new_learn,6,226,A,11.702083145186108,50.238124451708565,0.5851041572593054,0.789138613538087,A,660,Correct
2,new_learn,6,227,C,81.78912039823636,60.13017615578049,4.089456019911818,0.9445225983503007,B,805,Incorrect
2,new_learn,6,228,C,75.82443639291368,35.01978956567491,3.7912218196456844,0.5500895681489241,C,518,Correct
2,new_learn,6,229,D,55.05033341811951,2.3772281287072623,2.7525166709059756,0.03734141212526872,C,1471,Incorrect
2,new_learn,6,230,C,67.56984661673941,53.846637699030865,3.3784923308369708,0.8458210070789328,D,655,Incorrect
2,new_learn,6,231,B,42.83114874214217,67.40962042057528,2.1415574371071084,1.0588678414727788,B,763,Correct
2,new_learn,6,232,B,37.81065804266062,76.29523129571123,1.890532902133031,1.1984426907127024,A,728,Incorrect
2,new_learn,6,233,D,40.00884467435276,32.849716330578715,2.0004422337176377,0.5160021374832737,B,413,Incorrect
2,new_learn,6,234,A,28.864282362514142,38.8734723835357,1.4432141181257072,0.6106230762982073,A,871,Correct
2,new_learn,6,235,C,60.99140316679687,52.48417151251667,3.0495701583398436,0.8244194382673453,C,773,Correct
2,new_learn,6,236,B,27.571789213724823,73.95672246058251,1.378589460686241,1.1617094798287262,A,2523,Incorrect
2,new_learn,6,237,D,35.39117720960003,38.67926162736751,1.7695588604800014,0.6075724208740768,A,1248,Incorrect
2,new_learn,6,238,A,33.649243400623604,62.06072507970848,1.6824621700311804,0.97484758993434,C,660,Incorrect
2,new_learn,6,239,C,91.85700306819437,50.724822656057015,4.592850153409719,0.796783651054569,D,600,Incorrect
2,new_learn,6,240,B,31.54763395674562,68.44121856677961,1.577381697837281,1.0750721472606408,A,755,Incorrect
2,new_learn,6,241,A,40.104488466916266,47.21147080889741,2.0052244233458136,0.7415960492920053,D,985,Incorrect
2,new_learn,6,242,D,50.599879174876726,31.070057286236413,2.529993958743836,0.4880473185852717,A,525,Incorrect
2,new_learn,6,243,C,86.29371815230861,51.61694583774206,4.314685907615431,0.8107970892229636,B,318,Incorrect
2,new_learn,6,244,A,46.221428741493796,42.14174209112352,2.31107143707469,0.6619609368147471,C,253,Incorrect
2,new_learn,6,245,C,86.16789194391,40.104669203638416,4.308394597195501,0.6299626707239964,D,447,Incorrect
2,new_learn,6,246,A,30.248250073365103,47.491685961710324,1.5124125036682552,0.7459976586195132,C,645,Incorrect
2,new_learn,6,247,B,53.15632301944536,82.5185747961882,2.657816150972268,1.2961987418220235,C,646,Incorrect
2,new_learn,6,248,C,75.8577342981889,42.72730876215368,3.792886714909445,0.6711589965742241,B,293,Incorrect
2,new_learn,6,249,B,39.95250141159775,54.18534168558625,1.9976250705798875,0.8511413568584528,D,308,Incorrect
2,new_learn,6,250,A,23.836642177306604,54.78725153590682,1.19183210886533,0.860596134677905,A,286,Correct
2,new_learn,6,251,C,64.76239785327147,51.5307406361344,3.2381198926635735,0.8094429810826043,C,709,Correct
2,new_learn,6,252,A,48.60639778044288,62.549987251865225,2.4303198890221442,0.982532902162975,C,582,Incorrect
2,new_learn,6,253,D,52.12364578005618,21.691619082322667,2.606182289002809,0.3407311557674653,B,288,Incorrect
2,new_learn,6,254,C,55.451394579359714,39.83250022099962,2.772569728967986,0.6256874503420312,D,236,Incorrect
2,new_learn,6,255,A,10.699373010769625,70.83871431447966,0.5349686505384813,1.1127319224005772,A,687,Correct
2,new_learn,6,256,B,38.9314940439078,71.9405709051668,1.9465747021953899,1.130039845253638,A,653,Incorrect
2,new_learn,6,257,C,68.80019114785706,38.26272989379541,3.440009557392853,0.6010295557031912,B,480,Incorrect
2,new_learn,6,258,C,87.15101331756507,38.56624113539531,4.357550665878254,0.6057970991376519,C,644,Correct
2,new_learn,6,259,C,85.68517983649348,62.83794958292783,4.284258991824674,0.9870562038818593,C,549,Correct
2,new_learn,6,260,B,74.19708892525887,77.2673797316593,3.7098544462629435,1.2137131626355688,C,517,Incorrect
2,new_learn,6,261,D,43.653924455079434,12.321986147624846,2.1826962227539717,0.1935533057950671,A,751,Incorrect
2,new_learn,6,262,B,50.9942393071541,70.94862474074036,2.549711965357705,1.1144583913390447,B,871,Correct
2,new_learn,6,263,A,18.751946532715422,33.60242116681047,0.9375973266357711,0.5278255974024098,A,659,Correct
2,new_learn,6,264,D,45.529416667441126,9.330545691576145,2.2764708333720565,0.14656386899319757,B,853,Incorrect
2,new_learn,6,265,C,67.24573873838469,68.34627311523991,3.3622869369192347,1.0735807475953965,D,1320,Incorrect
2,new_learn,6,266,B,60.20839265654036,78.37351784253423,3.010419632827018,1.2310883394504704,D,627,Incorrect
2,new_learn,6,267,C,73.27036479954828,36.36719682807699,3.6635182399774133,0.5712545919337035,B,445,Incorrect
2,new_learn,6,268,A,19.26672728355954,33.10035446163389,0.963336364177977,0.5199391520394359,A,607,Correct
2,new_learn,6,269,D,52.098634415656356,46.65668764794093,2.6049317207828175,0.7328815357780243,B,1157,Incorrect
2,new_learn,6,270,A,10.591179091863522,35.9675791244054,0.5295589545931761,0.564977411723208,A,870,Correct
2,new_learn,6,271,C,100.70803834349235,44.224252106158744,5.035401917174617,0.6946729276360561,D,684,Incorrect
2,new_learn,6,272,B,44.620723522107156,58.243038186601765,2.2310361761053574,0.9148795044488894,B,1207,Correct
2,new_learn,6,273,B,66.5540826825444,76.88391383272962,3.32770413412722,1.2076896943806703,D,1916,Incorrect
2,new_learn,6,274,B,70.65329104711152,87.01742849455007,3.532664552355576,1.3668665704637681,C,573,Incorrect
2,new_learn,6,275,D,33.365759754933315,43.493107782535716,1.6682879877466659,0.6831881394570164,A,672,Incorrect
2,new_learn,6,276,B,23.92607102117677,70.17852331273572,1.1963035510588385,1.1023616663953528,A,686,Incorrect
2,new_learn,6,277,B,40.02196062532613,73.52420333062744,2.0010980312663067,1.1549154852227066,D,460,Incorrect
2,new_learn,6,278,A,27.741318892710357,25.766046916323347,1.387065944635518,0.4047321185218568,A,414,Correct
2,new_learn,6,279,B,50.567467107970266,89.53329742219832,2.528373355398513,1.4063857471662409,A,782,Incorrect
2,new_learn,6,280,D,31.781879812734857,43.119032397639586,1.589093990636743,0.677312177051624,A,636,Incorrect
2,new_learn,6,281,B,47.45759496914678,66.46855814251391,2.372879748457339,1.0440856697761385,A,439,Incorrect
2,new_learn,6,282,C,82.50584143886034,55.269079961074155,4.125292071943017,0.868164677881887,B,679,Incorrect
2,new_learn,6,283,D,40.32153722247499,18.602405846310504,2.0160768611237496,0.2922059077293245,C,197,Incorrect
2,new_learn,6,284,D,39.66376292113562,27.787285712317267,1.983188146056781,0.4364816632850827,D,373,Correct
2,new_learn,6,285,C,73.4057430825094,40.28574198722475,3.67028715412547,0.6328069553573958,A,329,Incorrect
2,new_learn,6,286,B,50.67415699183705,95.3390432311105,2.5337078495918526,1.4975821890756822,D,285,Incorrect
2,new_learn,6,287,B,66.57991109742647,84.91954093728715,3.328995554871324,1.3339130297739952,C,402,Incorrect
2,new_learn,6,288,B,61.88123360546105,59.17744703354887,3.094061680273052,0.9295571642939812,B,537,Correct
2,new_learn,6,289,C,64.50493448360771,74.54323743476529,3.2252467241803857,1.1709224354992915,B,566,Incorrect
2,new_learn,6,290,D,59.01288068347041,9.631609628818945,2.95064403417352,0.15129297026071153,B,357,Incorrect
2,new_learn,6,291,A,31.144274401586795,74.78164803202795,1.55721372007934,1.174667380403783,D,348,Incorrect
2,new_learn,6,292,B,59.529226856441895,95.6792790778094,2.9764613428220947,1.502926601258068,C,325,Incorrect
2,new_learn,6,293,A,18.193542944867502,66.29408797884719,0.9096771472433751,1.0413450988539086,B,516,Incorrect
2,new_learn,6,294,D,34.11648819076492,25.40604426415317,1.705824409538246,0.39907721008520347,A,568,Incorrect
2,new_learn,6,295,A,18.784523232392722,57.141942263108376,0.9392261616196361,0.8975835301281669,A,517,Correct
2,new_learn,6,296,C,66.66137036454079,36.15320036958721,3.3330685182270394,0.5678931434242749,C,810,Correct
2,new_learn,6,297,C,85.6215296928351,32.69281598552891,4.281076484641755,0.5135375526265028,C,686,Correct
2,new_learn,6,298,A,11.426639956983049,40.876895810799496,0.5713319978491525,0.6420927779038155,A,765,Correct
2,new_learn,6,299,C,76.94210917417594,76.48581700667519,3.8471054587087967,1.2014364040599201,C,877,Correct
2,new_learn,6,300,C,78.7844624026634,29.62060340335742,3.9392231201331698,0.46527935023442246,C,757,Incorrect
2,new_learn,6,301,D,67.3722121589105,21.757911551077267,3.368610607945525,0.3417724754316042,C,670,Correct
2,new_learn,6,302,B,43.618896951061586,62.16966751351523,2.180944847553079,0.9765588536828972,B,934,Incorrect
2,new_learn,6,303,A,41.376024165558945,37.91255152154966,2.068801208277947,0.5955289666947247,D,421,Incorrect
2,new_learn,6,304,B,49.628791075494306,53.27036702546383,2.481439553774715,0.8367689685061456,C,462,Incorrect
2,new_learn,6,305,C,66.08101547872063,69.37595597984544,3.304050773936032,1.0897549682102567,A,516,Incorrect
2,new_learn,6,306,C,93.14754381155744,59.2729039539838,4.657377190577872,0.9310565980938446,C,415,Correct
2,new_learn,6,307,C,74.12678894082714,44.32777887738481,3.706339447041357,0.6962991223557247,C,516,Correct
2,new_learn,6,308,A,5.14015415710961,49.338247532243436,0.2570077078554805,0.7750033799414536,A,789,Incorrect
2,new_learn,6,309,D,56.65910637387509,25.183385391434022,2.8329553186937546,0.39557969269124815,B,750,Correct
2,new_learn,6,310,D,45.347632187881565,20.55157059555473,2.267381609394078,0.32282331601363373,C,499,Incorrect
2,new_learn,6,311,C,91.657058808344,47.95589860633971,4.5828529404172,0.7532894937898691,D,472,Incorrect
2,new_learn,6,312,C,57.314149481093374,52.385856473044456,2.865707474054669,0.8228751092386288,A,308,Incorrect
2,new_learn,6,313,A,48.92785315128347,38.75773455897349,2.4463926575641737,0.6088050708012719,B,415,Incorrect
2,new_learn,6,314,A,30.906010625831723,29.90816849311622,1.545300531291586,0.4697964121014982,A,653,Incorrect
2,new_learn,6,315,A,4.761327144683271,41.233617264936115,0.23806635723416356,0.6476961454022827,A,654,Correct
2,new_learn,6,316,A,36.86129796731717,59.14625039758169,1.8430648983658586,0.929067128682125,A,523,Incorrect
2,new_learn,6,317,A,40.939117523013664,62.33782200363595,2.046955876150683,0.9792002182370542,D,375,Incorrect
2,new_learn,6,318,A,26.78753191118324,61.79893881962504,1.339376595559162,0.9707354609768956,B,326,Incorrect
2,new_learn,6,319,C,88.20230863101814,61.991016900709226,4.410115431550907,0.9737526164191441,C,454,Incorrect
2,new_learn,6,320,B,40.62459582440506,54.611771040685184,2.031229791220253,0.857839693504722,C,830,Incorrect
2,new_learn,6,321,B,52.55622114764218,63.9473887407951,2.627811057382109,1.0044832334216627,D,148,Incorrect
2,new_learn,6,322,B,65.37448280983527,75.02293917667475,3.2687241404917637,1.1784575728407765,A,312,Incorrect
2,new_learn,6,323,B,53.09483077685125,57.1506534143271,2.654741538842563,0.8977203645715323,B,407,Correct
2,new_learn,6,324,A,30.50109147021721,72.20360507446708,1.5250545735108605,1.1341715763232225,B,396,Incorrect
2,new_learn,6,325,B,38.18177619702889,75.54943961076866,1.9090888098514442,1.1867278223200826,B,15502,Incorrect
2,new_learn,6,326,A,24.284451286531947,61.85134200223079,1.2142225643265974,0.9715586082443903,A,390,Incorrect
2,new_learn,6,327,D,48.4014647028002,35.46845135917155,2.4200732351400096,0.5571371311209014,A,555,Incorrect
2,new_learn,6,328,C,62.84644043532936,31.21401424324076,3.1423220217664682,0.49030858917806175,C,551,Incorrect
2,new_learn,6,329,D,51.22803809371024,49.594958037875635,2.561401904685512,0.7790357791344208,D,407,Incorrect
2,new_learn,6,330,D,71.0203609080594,27.19718542322497,3.55101804540297,0.42721238961961483,B,518,Incorrect
2,new_learn,6,331,C,59.089440405416894,34.79053613230984,2.9544720202708445,0.5464884636385742,B,661,Incorrect
2,new_learn,6,332,D,28.19500848585956,26.451687150619687,1.409750424292978,0.4155021301372117,A,718,Incorrect
2,new_learn,6,333,D,59.26141784617897,2.019541794996389,2.9630708923089486,0.031722888333890996,A,350,Correct
2,new_learn,6,334,A,10.652500924870308,61.940461565053695,0.5326250462435155,0.9729584950636683,A,646,Correct
2,new_learn,6,335,A,31.84994275208841,37.90980970982832,1.5924971376044204,0.5954858984169185,C,2014,Incorrect
2,new_learn,6,336,B,58.78506875725409,86.19744692172216,2.9392534378627047,1.3539863300373924,A,2772,Incorrect
2,new_learn,6,337,C,80.01667588067811,73.80132713006776,4.000833794033905,1.1592685356849899,A,717,Incorrect
2,new_learn,6,338,D,63.590056631467924,41.103770102828506,3.179502831573396,0.6456565109494491,B,806,Incorrect
2,new_learn,6,339,B,66.70758243666415,95.33797722263247,3.3353791218332076,1.4975654442536663,C,714,Incorrect
2,new_learn,6,340,D,34.079843564779885,30.608338490836875,1.7039921782389942,0.4807946567070141,D,568,Incorrect
2,new_learn,6,341,A,20.809594590700378,56.712684860495685,1.040479729535019,0.8908407706154317,A,650,Incorrect
2,new_learn,6,342,D,64.98213742270428,40.52281449838437,3.249106871135214,0.6365308816545315,A,654,Incorrect
2,new_learn,6,343,D,33.42343288558985,23.128464974103547,1.6711716442794924,0.36330107825726277,A,1949,Incorrect
2,new_learn,6,344,D,23.682573531313956,25.917765106098557,1.1841286765656978,0.4071153022739256,A,670,Incorrect
2,new_learn,6,345,A,21.72830226491349,55.61714488770663,1.0864151132456745,0.8736320689642914,B,519,Incorrect
2,new_learn,6,346,A,37.07089560043248,29.558370092114384,1.853544780021624,0.4643017916673741,C,404,Incorrect
2,new_learn,6,347,B,34.83371084059125,62.65224733136992,1.7416855420295627,0.9841391997356124,A,4303,Incorrect
2,new_learn,6,348,D,51.98626279057087,25.022492413410493,2.5993131395285434,0.3930523917023837,A,796,Incorrect
2,new_learn,6,349,A,4.294358444321478,66.16431122887673,0.21471792221607391,1.039306570432339,A,885,Correct
2,new_learn,6,350,D,53.433548362076245,22.45785126249245,2.6716774181038123,0.3527671027082927,C,5757,Incorrect
2,new_learn,6,351,B,38.551838976099084,53.18633007802422,1.9275919488049542,0.8354489192226137,C,685,Incorrect
2,new_learn,6,352,A,8.148815940415489,66.47521234476585,0.4074407970207744,1.0441901937406897,A,573,Incorrect
2,new_learn,6,353,C,82.7362954009083,32.62700925309685,4.136814770045415,0.5125038628906764,B,1223,Incorrect
2,new_learn,6,354,B,40.849842358529756,54.96687207348187,2.042492117926488,0.8634176074843031,C,399,Incorrect
2,new_learn,6,355,A,8.53905571134052,55.26878264417134,0.42695278556702604,0.8681600076388988,A,660,Incorrect
2,new_learn,6,356,C,72.48607657882455,44.69347008744484,3.624303828941228,0.7020433864507594,A,453,Incorrect
2,new_learn,6,357,B,30.299583914675996,92.55592274085168,1.5149791957338,1.4538650346444206,C,432,Incorrect
2,new_learn,6,358,D,68.77134696877899,6.1529254788433505,3.438567348438949,0.09664992741209866,D,398,Correct
2,new_learn,6,359,C,51.97214797905403,38.56741726824871,2.598607398952702,0.6058155737893114,B,371,Correct
2,new_learn,6,360,D,64.10214037059868,24.707846772176683,3.205107018529934,0.3881099495274627,D,286,Incorrect
2,new_learn,6,361,D,42.16925754105695,2.0462906748627887,2.1084628770528475,0.032143058756291185,B,252,Incorrect
2,new_learn,6,362,A,39.99657829836511,72.12121152140139,1.9998289149182553,1.1328773414181508,C,377,Incorrect
2,new_learn,6,363,D,43.944947896559206,38.47746186674367,2.19724739482796,0.6044025576467165,A,357,Incorrect
2,new_learn,6,364,C,82.39209819912625,47.59511478829611,4.119604909956313,0.7476223148283698,C,292,Incorrect
2,new_learn,6,365,B,68.57895661428292,79.10243282349295,3.4289478307141454,1.2425381091968277,D,360,Incorrect
2,new_learn,6,366,C,86.91711675744037,36.05120560454927,4.345855837872018,0.5662910134015358,B,550,Correct
2,new_learn,6,367,B,49.178521070359466,67.82445544450314,2.458926053517973,1.0653840547908966,C,925,Incorrect
2,new_learn,6,368,C,59.978519929647796,62.64715155209395,2.9989259964823898,0.9840591554219238,B,328,Correct
2,new_learn,6,369,C,68.11874926182634,30.72071267759368,3.405937463091317,0.4825598263048556,D,1018,Incorrect
2,new_learn,6,370,A,21.131277640036267,59.34737151453128,1.0565638820018135,0.932226331799578,A,686,Correct
2,new_learn,6,371,C,64.03015660449512,27.06849529565931,3.201507830224756,0.42519092982286577,B,894,Incorrect
2,new_learn,6,372,B,71.92611041135052,63.67865462374819,3.596305520567526,1.000261967782245,C,823,Incorrect
2,new_learn,6,373,B,49.91484759808628,94.95430131155572,2.495742379904314,1.4915386771356756,B,1006,Incorrect
2,new_learn,6,374,A,10.371969122495413,71.65130715768441,0.5185984561247706,1.1254961009334357,A,589,Incorrect
2,new_learn,6,375,A,43.659446320582795,67.28728044815489,2.1829723160291397,1.0569461296797975,C,735,Incorrect
2,new_learn,6,376,B,28.625093703776457,76.46035149623025,1.4312546851888228,1.2010363927572514,B,420,Correct
2,new_learn,6,377,D,54.59859712090379,18.043094231640993,2.7299298560451892,0.28342026143075855,B,398,Correct
2,new_learn,6,378,D,49.55805645195725,15.668818370584853,2.4779028225978625,0.24612522341731086,B,301,Incorrect
2,new_learn,6,379,C,63.778085969231924,44.22849915465341,3.1889042984615963,0.6947396401178076,B,269,Incorrect
2,new_learn,6,380,B,44.854088122218734,54.29600172773208,2.2427044061109367,0.8528796007357092,B,252,Correct
2,new_learn,6,381,C,82.22580344940516,35.837458986298486,4.111290172470258,0.5629334893734042,D,638,Incorrect
2,new_learn,6,382,A,30.316172998900683,58.36427523539994,1.5158086499450343,0.9167838915581257,C,520,Incorrect
2,new_learn,6,383,A,8.116094126748362,36.24436115668368,0.4058047063374181,0.5693250937194635,A,898,Correct
2,new_learn,6,384,C,71.78334250416998,71.25629996259627,3.589167125208499,1.1192913424224153,C,327,Correct
2,new_learn,6,385,D,74.65556586136944,28.624009079835936,3.732778293068472,0.44962488320750055,A,276,Incorrect
2,new_learn,6,386,A,0.5247337945963402,48.530780005980844,0.02623668972981701,0.7623197096988592,C,191,Incorrect
2,new_learn,6,387,B,68.09197246539827,91.66566230012694,3.4045986232699135,1.4398808563426084,D,640,Incorrect
2,new_learn,6,388,D,63.85086891278468,20.495809567577314,3.1925434456392336,0.3219474238343814,B,380,Incorrect
2,new_learn,6,389,D,31.454134028312804,24.613444373587498,1.5727067014156402,0.3866270801180175,B,780,Incorrect
2,new_learn,6,390,B,48.6443553630742,81.20841348884824,2.43221776815371,1.2756187761312394,A,431,Incorrect
2,new_learn,6,391,A,5.273919587736387,64.91100040778434,0.2636959793868193,1.0196196100912969,A,750,Incorrect
2,new_learn,6,392,B,52.94728837079191,56.31548840598457,2.6473644185395955,0.8846016232978114,A,995,Correct
2,new_learn,6,393,B,67.80554324010443,80.27339184218746,3.3902771620052214,1.260931490450755,B,382,Incorrect
2,new_learn,6,394,C,80.4454877078355,74.30500985188719,4.022274385391775,1.1671803653780302,C,403,Incorrect
2,new_learn,6,395,B,60.81598824176305,53.32226714654529,3.0407994120881527,0.8375842137016956,D,511,Incorrect
2,new_learn,6,396,A,8.376994446977228,54.63593420404013,0.4188497223488614,0.8582192475871389,B,644,Correct
2,new_learn,6,397,B,67.610605607427,88.64399264922007,3.3805302803713504,1.3924165804582869,B,1094,Incorrect
2,new_learn,6,398,B,54.035725078643715,86.01721072756615,2.7017862539321857,1.3511551865200349,C,445,Incorrect
2,new_learn,6,399,D,70.01298070342834,32.56667915228975,3.500649035171417,0.5115561998832467,A,2368,Incorrect
2,new_learn,6,400,B,28.536918134119638,69.08263815616527,1.426845906705982,1.0851475426100539,B,333,Incorrect
2,new_learn,6,401,C,84.35092793162211,57.323954154057034,4.217546396581105,0.9004425662255184,C,396,Incorrect
2,new_learn,6,402,C,60.624706683616424,27.91500182069908,3.031235334180821,0.4384878232242696,D,496,Incorrect
2,new_learn,6,403,C,63.961959206833704,61.493200506135096,3.1980979603416855,0.9659329347789908,B,490,Incorrect
2,new_learn,6,404,B,69.53296863974181,64.5455670517287,3.4766484319870905,1.0138793963574912,C,573,Incorrect
2,new_learn,6,405,B,74.67884462000384,69.38819962860234,3.7339422310001917,1.0899472909951955,D,327,Incorrect
2,new_learn,6,406,D,41.443145415120725,15.006395630063503,2.0721572707560365,0.2357199113413474,B,445,Correct
2,new_learn,6,407,C,69.45483619644982,43.36555579928073,3.472741809822491,0.6811845575892929,C,520,Incorrect
2,new_learn,6,408,C,86.55289883300051,71.33550562432966,4.327644941650026,1.120535502047537,D,475,Incorrect
2,new_learn,6,409,B,29.062915188115138,65.25852193543233,1.4531457594057569,1.0250784654824128,B,566,Correct
2,new_learn,6,410,C,57.099600714757194,69.81399398820314,2.8549800357378596,1.0966356531555048,B,476,Incorrect
2,new_learn,6,411,D,70.17467483347757,12.830841294698468,3.5087337416738786,0.2015463837540063,C,469,Incorrect
2,new_learn,6,412,C,71.5904268919411,52.487221379080616,3.579521344597055,0.824467345459304,D,397,Incorrect
2,new_learn,6,413,A,33.85082131822517,32.64136846800239,1.6925410659112585,0.5127294169109692,A,761,Correct
2,new_learn,6,414,B,35.96772317412506,72.40498082908107,1.7983861587062533,1.1373347792797546,A,667,Correct
2,new_learn,6,415,C,73.82840798882451,27.213442303945882,3.6914203994412254,0.42746775210483035,C,759,Correct
2,new_learn,6,416,C,95.4841202476405,67.13334582528313,4.774206012382025,1.0545281302780625,D,725,Correct
2,new_learn,6,417,B,43.41041193409946,54.783280209456535,2.1705205967049728,0.8605337532278988,A,646,Correct
2,new_learn,6,418,B,53.23057011398778,59.019729338354296,2.6615285056993887,0.9270797405311593,D,717,Correct
2,new_learn,6,419,C,70.96238024743735,61.09152259583717,3.5481190123718678,0.9596233929184845,A,565,Incorrect
2,new_learn,6,420,B,69.8343161119672,74.65831093373141,3.49171580559836,1.1727300057941656,D,732,Incorrect
2,new_learn,6,421,C,86.53340953895358,49.17157432338312,4.32667047694768,0.7723852832989248,B,406,Correct
2,new_learn,6,422,D,37.15165284346186,30.502013963755967,1.8575826421730932,0.4791245149411452,C,630,Correct
2,new_learn,6,423,B,64.2265141102033,84.45507012206384,3.211325705510165,1.3266171392694333,C,551,Incorrect
2,new_learn,6,424,A,34.117093108190055,29.113730247517214,1.7058546554095029,0.45731740532097526,B,331,Incorrect
2,new_learn,6,425,A,36.048907811704865,29.97455903998678,1.8024453905852431,0.47083927237307993,D,301,Incorrect
2,new_learn,6,426,C,96.63747389464713,53.72310758844886,4.831873694732357,0.843880600639425,D,374,Incorrect
2,new_learn,6,427,C,51.628008478918055,61.27050990178387,2.5814004239459027,0.9624349189457244,C,608,Incorrect
2,new_learn,6,428,A,34.97271629229379,72.34585814228839,1.7486358146146896,1.1364060822873125,B,306,Incorrect
2,new_learn,6,429,C,84.98343419283637,40.174157797308695,4.249171709641819,0.6310541950009105,C,287,Incorrect
2,new_learn,6,430,A,36.75098229522368,49.67970828654738,1.837549114761184,0.780367032927506,D,320,Incorrect
2,new_learn,6,431,C,75.37212303568833,43.60955530176978,3.7686061517844167,0.6850172928117888,A,382,Incorrect
2,new_learn,6,432,A,19.87578271344417,58.94412890259698,0.9937891356722085,0.9258922116632424,A,766,Correct
2,new_learn,6,433,A,38.5133035943997,67.49299629256205,1.925665179719985,1.0601775066073804,A,2604,Correct
2,new_learn,6,434,A,28.6107715310147,25.850874299443536,1.430538576550735,0.4060645839400251,A,662,Correct
2,new_learn,6,435,C,71.77425626463032,44.66001939916543,3.588712813231516,0.7015179442679786,A,1004,Incorrect
2,new_learn,6,436,C,73.27207498604633,25.307156311568647,3.663603749302317,0.3975238817583632,A,2748,Incorrect
2,new_learn,6,437,C,73.06235211608764,60.90724731457796,3.653117605804382,0.9567288035692738,B,374,Incorrect
2,new_learn,6,438,B,33.31614193309903,94.5324987198454,1.6658070966549516,1.4849130175187641,C,351,Incorrect
2,new_learn,6,439,B,64.64793556771683,92.0289612285163,3.2323967783858416,1.4455875425650333,C,1676,Incorrect
2,new_learn,6,440,D,69.31276452407586,11.50035622590165,3.4656382262037932,0.1806471731647913,D,623,Incorrect
2,new_learn,6,441,D,55.096187899248804,37.91733525532746,2.75480939496244,0.59560410940919,A,445,Incorrect
2,new_learn,6,442,C,90.74332025598103,43.39102982019905,4.537166012799052,0.681584702574165,C,1054,Correct
2,new_learn,6,443,A,26.38212684530841,59.434490045712714,1.3191063422654203,0.9335947864873337,A,662,Incorrect
2,new_learn,6,444,D,46.340223128171054,17.09562390814062,2.3170111564085527,0.26853743239174305,D,423,Incorrect
2,new_learn,6,445,D,40.778847348724234,36.27533080665759,2.0389423674362117,0.5698115638436749,B,381,Incorrect
2,new_learn,6,446,D,65.82281379711385,14.362737888219701,3.2911406898556925,0.22560935917533392,C,398,Incorrect
2,new_learn,6,447,C,52.842794938286005,47.276597341342914,2.6421397469143004,0.742619054471428,D,350,Incorrect
2,new_learn,6,448,B,66.5829955579789,81.94649845937866,3.3291497778989454,1.2872125877369567,A,43,Incorrect
2,new_learn,6,449,D,52.17347074487056,36.447560044309284,2.6086735372435284,0.5725169343823745,B,254,Incorrect
2,new_learn,6,450,A,22.933416991424384,65.61166252047735,1.1466708495712192,1.030625584820722,B,264,Incorrect
2,new_learn,6,451,A,4.379641174177081,36.99611097862251,0.21898205870885407,0.5811335523091659,A,421,Incorrect
2,new_learn,6,452,B,41.49808580621644,81.39389670231907,2.0749042903108217,1.2785323396352604,B,539,Correct
2,new_learn,6,453,B,50.64881181185676,82.9050033744538,2.532440590592838,1.3022687477351054,B,302,Incorrect
2,new_learn,6,454,D,47.03440645891082,7.300152152604774,2.3517203229455412,0.11467052186355436,C,422,Incorrect
2,new_learn,6,455,C,95.83197394549273,66.25412284441185,4.791598697274637,1.0407173279901998,D,325,Incorrect
2,new_learn,6,456,A,4.647695934214827,55.90328357188549,0.23238479671074136,0.8781267249049121,B,295,Incorrect
2,new_learn,6,457,D,25.653400909121007,29.263248662391646,1.2826700454560502,0.4596660350897047,C,534,Incorrect
2,new_learn,6,458,A,20.861907071992064,70.46800898662352,1.0430953535996033,1.10690889672738,A,479,Incorrect
2,new_learn,6,459,A,7.875335409691672,29.451445989126654,0.39376677048458364,0.46262223178518436,A,597,Correct
2,new_learn,6,460,B,41.28473138363392,96.36327326666964,2.064236569181696,1.5136707568521754,C,421,Correct
2,new_learn,6,461,A,41.854293433279956,37.110395805483925,2.0927146716639977,0.5829287341715889,A,326,Incorrect
2,new_learn,6,462,C,81.70746457525493,66.0276673210849,4.085373228762746,1.037160172947956,B,326,Incorrect
2,new_learn,6,463,A,-0.7898734265579641,48.635623438278216,-0.0394936713278982,0.7639665864822719,D,283,Incorrect
2,new_learn,6,464,C,84.64023000779024,32.16468983309542,4.232011500389512,0.5052417664232345,B,438,Incorrect
2,new_learn,6,465,D,40.55098106024647,47.66307668435617,2.0275490530123235,0.7486898577953015,C,509,Incorrect
2,new_learn,6,466,C,79.57634577811164,37.655019154532326,3.9788172889055824,0.5914836577333085,A,590,Incorrect
2,new_learn,6,467,A,0.2497481191389852,54.38425565413752,0.01248740595694926,0.854265890169938,C,416,Incorrect
2,new_learn,6,468,B,68.99589110753001,73.01448118309244,3.449794555376501,1.146908788452367,B,1054,Incorrect
2,new_learn,6,469,D,44.90181789160313,18.08107220105972,2.2450908945801564,0.2840168179793793,A,334,Incorrect
2,new_learn,6,470,C,91.37898604015656,43.848525687735695,4.5689493020078285,0.688771030856669,D,362,Incorrect
2,new_learn,6,471,C,77.61963939388889,45.392679187696146,3.880981969694444,0.7130265373141225,B,311,Incorrect
2,new_learn,6,472,B,45.29892794878567,91.32032131522777,2.2649463974392834,1.4344562528368947,C,284,Incorrect
2,new_learn,6,473,A,28.659139857605624,39.57261252085763,1.4329569928802812,0.6216051438944089,A,279,Correct
2,new_learn,6,474,D,62.187329447042515,24.058962196206448,3.109366472352126,0.37791729444298366,A,18902,Correct
2,new_learn,6,475,D,44.005306221156545,19.681702298458568,2.2002653110578274,0.3091594567548939,B,685,Incorrect
2,new_learn,6,476,C,60.56659355073033,47.82949380811864,3.0283296775365165,0.7513039318625201,C,1367,Correct
2,new_learn,6,477,D,60.648936400461906,20.74002677375575,3.0324468200230954,0.32578357873843344,A,5707,Incorrect
2,new_learn,6,478,B,35.42460420719913,71.67024500910524,1.7712302103599566,1.1257935760079278,C,14,Incorrect
2,new_learn,6,479,A,11.566975612705871,52.08618375281444,0.5783487806352936,0.8181678611568496,D,532,Incorrect
2,new_learn,6,480,D,48.16266132309793,0.4119366135225775,2.4081330661548965,0.006470685193935936,D,7975,Incorrect
2,new_learn,6,481,D,75.89977856014455,29.506949111042104,3.794988928007228,0.4634940727854887,B,447,Incorrect
2,new_learn,6,482,A,12.45433869234786,31.36726968517677,0.6227169346173931,0.49271592003060577,C,381,Incorrect
2,new_learn,6,483,A,32.769478990543284,73.09195101860323,1.6384739495271643,1.1481256817829444,A,430,Incorrect
2,new_learn,6,484,B,60.04656272255429,65.35881574295152,3.0023281361277143,1.026653876926927,B,470,Incorrect
2,new_learn,6,485,B,44.003823294568626,73.82729874002516,2.2001911647284316,1.15967649678021,C,583,Incorrect
2,new_learn,6,486,D,46.37620572754828,50.113280312714046,2.318810286377414,0.7871775663885423,D,388,Correct
2,new_learn,6,487,D,33.32442603505219,40.210837654239185,1.6662213017526097,0.6316303608462482,D,437,Incorrect
2,new_learn,6,488,D,38.57576839728736,11.382833356667973,1.928788419864368,0.17880112825172476,A,4902,Incorrect
2,new_learn,6,489,C,65.21296495756087,70.45467259239729,3.2606482478780436,1.1066994091367472,B,896,Incorrect
2,new_learn,6,490,D,67.65281661702,26.926178823240768,3.382640830851,0.42295542790169127,B,5973,Correct
2,new_learn,6,491,C,76.87689272291884,62.223323046830124,3.843844636145942,0.97740167282933,B,502,Correct
2,new_learn,6,492,A,43.81223724738152,57.70566587578902,2.190611862369076,0.90643847992943,C,446,Incorrect
2,new_learn,6,493,B,69.73777896990212,73.52212288424677,3.4868889484951064,1.1548828056473783,D,333,Incorrect
2,new_learn,6,494,B,36.872786232817475,98.3723047572853,1.8436393116408738,1.5452285497109188,A,199,Incorrect
2,new_learn,6,495,A,19.636013420198196,55.009755517267216,0.9818006710099099,0.8640912190440864,B,79,Incorrect
2,new_learn,6,496,B,31.441532791536464,87.35750367364136,1.572076639576823,1.3722084588852754,D,125,Incorrect
2,new_learn,6,497,C,67.0450328500547,47.928543331089664,3.3522516425027344,0.7528597981310566,A,229,Incorrect
2,new_learn,6,498,A,35.09612060452154,28.71103679140947,1.7548060302260768,0.45099191130419125,D,215,Incorrect
2,new_learn,6,499,B,31.475011612103273,59.336280798274686,1.5737505806051637,0.9320521192360043,B,859,Incorrect
2,new_learn,6,500,C,71.26650978760213,32.29281820271531,3.5633254893801065,0.5072544021468058,A,637,Incorrect
2,new_learn,6,501,B,26.24716356539392,79.44863672846655,1.312358178269696,1.2479762674193735,C,448,Incorrect
2,new_learn,6,502,A,21.32091614966303,56.87429255356085,1.0660458074831516,0.8933792983219171,C,333,Correct
2,new_learn,6,503,A,35.9532521529735,71.71241795394513,1.797662607648675,1.1264560270763742,D,255,Incorrect
2,new_learn,6,504,A,39.64808880329496,63.59824235483992,1.982404440164748,0.9989988548159415,A,13,Incorrect
2,new_learn,6,505,B,42.86644966162234,64.39463268899314,2.143322483081117,1.01150852493177,D,309,Incorrect
2,new_learn,6,506,B,24.543097801046663,74.01744434019038,1.227154890052333,1.1626632968831676,D,79,Incorrect
2,new_learn,6,507,B,54.50272837090963,98.2652509266464,2.7251364185454814,1.54354695207155,C,596,Incorrect
2,new_learn,6,508,B,46.165017827162366,97.99700710121395,2.308250891358118,1.5393333879148028,A,373,Incorrect
2,new_learn,6,509,A,45.18065106914325,65.90639139011037,2.2590325534571627,1.0352551750789218,B,62,Incorrect
2,new_learn,6,510,D,69.76077238301522,17.561126025892662,3.4880386191507613,0.27584952255854456,D,494,Correct
2,new_learn,6,511,D,36.96869489016005,48.40587304303847,1.8484347445080027,0.7603576757130492,B,91,Incorrect
2,new_learn,6,512,B,46.380349111856795,84.02346180914704,2.3190174555928396,1.3198374517439944,C,143,Incorrect
2,new_learn,6,513,D,50.87828446986864,46.787742223803505,2.543914223493432,0.7349401362417703,A,204,Incorrect
2,new_learn,6,514,A,13.801495875173016,49.587508213691095,0.6900747937586508,0.7789187575697774,A,152,Correct
2,new_learn,6,515,C,90.42971510023543,49.304775647731375,4.521485755011771,0.7744776048090292,D,530,Incorrect
2,new_learn,6,516,A,42.257873032199086,68.48690503171203,2.112893651609954,1.0757897885736416,C,109,Incorrect
2,new_learn,6,517,D,58.71773392263021,35.478594883107725,2.9358866961315107,0.5572964652222983,D,111,Correct
2,new_learn,6,518,D,34.04507478815855,24.490894684846797,1.7022537394079276,0.3847020741087801,B,295,Incorrect
2,new_learn,6,519,B,45.847260377570805,82.27947839045213,2.2923630188785404,1.2924430242632226,D,21,Incorrect
2,new_learn,6,520,A,24.670588139234297,24.468564734266156,1.2335294069617149,0.3843513160652842,C,253,Correct
2,new_learn,6,521,A,6.362909634800761,36.50033643391228,0.3181454817400381,0.5733459439716735,C,262,Incorrect
2,new_learn,6,522,B,53.285240267748804,77.83027654091067,2.6642620133874404,1.2225551250389348,D,101,Incorrect
2,new_learn,6,523,C,81.95869611391392,53.293216570569754,4.0979348056956955,0.8371278883213589,D,96,Incorrect
2,new_learn,6,524,B,52.97478113716879,74.81048676921662,2.6487390568584397,1.175120378228237,D,76,Incorrect
2,new_learn,6,525,C,65.9286567425826,51.129327147105734,3.29643283712913,0.8031375927416828,A,132,Correct
2,new_learn,6,526,B,39.307312011135295,96.7937853875545,1.9653656005567648,1.5204332254334414,C,198,Incorrect
2,new_learn,6,527,D,47.234955750688,13.977806257618857,2.3617477875344,0.21956286726118424,A,128,Incorrect
2,new_learn,6,528,B,71.19605791859328,71.11163415748328,3.559802895929664,1.1170189372695725,C,67,Incorrect
2,new_learn,6,529,A,50.02849833382932,41.82252094904456,2.501424916691466,0.656946622840618,D,423,Correct
2,new_learn,6,530,B,38.89647420558984,68.97336270818383,1.944823710279492,1.0834310478870726,D,606,Incorrect
2,new_learn,6,531,A,25.351328005594393,61.315517074572966,1.2675664002797198,0.9631418899626897,C,12365,Incorrect
2,new_learn,6,532,B,25.17506963700611,78.22642913436236,1.2587534818503057,1.2287778754253769,C,135,Correct
2,new_learn,6,533,A,45.46481788305228,60.566890332022865,2.2732408941526137,0.9513824885893085,C,58,Incorrect
2,new_learn,6,534,C,64.88724127858974,62.700182213386164,3.244362063929487,0.984892159101577,D,38,Incorrect
2,new_learn,6,535,B,70.4065531743953,75.04569350903081,3.520327658719765,1.178814997057612,C,326,Incorrect
2,new_learn,6,536,C,81.96067298527907,25.40622538115571,4.098033649263954,0.39908005506442656,D,111,Incorrect
2,new_learn,6,537,B,49.97356221666774,89.02453721246269,2.498678110833387,1.3983941604795196,B,37,Incorrect
2,new_learn,6,538,D,60.241134202159685,33.69671305960838,3.0120567101079843,0.5293067309909446,A,375,Incorrect
2,new_learn,6,539,A,30.351165274438536,62.7169160864168,1.5175582637219267,0.9851550141644727,A,9261,Correct
2,new_learn,6,540,B,74.12775846005783,71.16275047606185,3.7063879230028918,1.1178218705241973,D,68,Incorrect
2,new_learn,6,541,B,54.66553884706983,99.36954570855244,2.7332769423534917,1.5608931739427176,D,917,Incorrect
2,new_learn,6,542,C,85.98176920208118,40.915616102343286,4.299088460104059,0.6427009948211095,D,336,Incorrect
2,new_learn,6,543,A,0.03402268984849499,49.30640713052113,0.0017011344924247496,0.7745032320807628,B,1269,Correct
2,new_learn,6,544,B,41.667111329402765,82.1289955138938,2.083355566470138,1.290079244765789,B,599,Correct
2,new_learn,6,545,D,53.580024306198325,8.213253922264158,2.679001215309916,0.12901349092126316,A,372,Incorrect
2,new_learn,6,546,C,57.997362635334085,44.35673523838524,2.899868131766704,0.6967539678106929,D,506,Incorrect
2,new_learn,6,547,D,48.347157066808556,37.28714092704146,2.417357853340428,0.5857050400488039,B,463,Incorrect
2,new_learn,6,548,B,43.47314526001534,69.41294871090074,2.1736572630007673,1.0903360486708542,A,1117,Correct
2,new_learn,6,549,D,61.699663466223576,40.40346426647647,3.084983173311179,0.6346561325957011,B,461,Incorrect
2,new_learn,6,550,D,53.095600235469966,41.55889580309566,2.6547800117734983,0.6528056087315451,C,135,Incorrect
2,new_learn,6,551,C,81.24952658290249,55.131557772626984,4.062476329145125,0.8660044843972309,D,213,Incorrect
2,new_learn,6,552,D,59.00365361403028,21.980194501661547,2.950182680701514,0.3452640878544734,D,491,Correct
2,new_learn,6,553,B,49.1543333537895,51.20715408554668,2.457716667689475,0.8043600954319701,B,334,Incorrect
2,new_learn,6,554,C,83.50675321315317,56.01151380976417,4.175337660657658,0.8798268015059918,D,277,Correct
2,new_learn,6,555,B,73.82099056499158,84.10269656476554,3.6910495282495788,1.3210820683747946,D,160,Incorrect
2,new_learn,6,556,C,80.17388666958092,62.879954697818434,4.008694333479046,0.987716018683627,D,493,Incorrect
2,new_learn,6,557,B,44.51969204938821,58.80014629297891,2.2259846024694103,0.9236305381201381,C,276,Incorrect
2,new_learn,6,558,C,54.48812759652776,50.17245419110707,2.7244063798263882,0.7881070674967622,B,389,Incorrect
2,new_learn,6,559,A,3.0934490478502177,53.294714821996386,0.15467245239251087,0.8371514227997344,A,702,Incorrect
2,new_learn,6,560,A,11.847900521059985,45.3488953383399,0.5923950260529992,0.7123387822167053,A,263,Correct
2,new_learn,6,561,D,43.52410023393547,27.15483019887477,2.1762050116967737,0.42654707531131614,D,596,Correct
2,new_learn,6,562,A,23.485411884455118,50.72438245537519,1.1742705942227558,0.7967767363984284,A,343,Incorrect
2,new_learn,6,563,C,58.97779959477057,68.55476843788261,2.9488899797385284,1.0768557844650073,D,470,Incorrect
2,new_learn,6,564,C,84.54369985469842,33.757848243477184,4.22718499273492,0.5302670402135351,D,309,Incorrect
2,new_learn,6,565,C,80.92900296791012,34.7931029460716,4.046450148395507,0.5465287830548595,C,502,Correct
2,new_learn,6,566,C,96.41052031370556,49.536473922008554,4.820526015685278,0.7781171127906221,B,367,Correct
2,new_learn,6,567,A,46.43611699356808,48.41722793438893,2.321805849678404,0.7605360379292938,B,366,Incorrect
2,new_learn,6,568,C,99.6744187591127,41.47188341818078,4.983720937955635,0.6514388213854455,C,102,Incorrect
2,new_learn,6,569,D,42.62361425488176,42.194771463956386,2.1311807127440883,0.6627939202553281,A,91,Incorrect
2,new_learn,6,570,B,43.91460941287676,50.89450764037486,2.195730470643838,0.7994490565553564,A,134,Incorrect
2,new_learn,6,571,C,62.61527638310547,69.70332193836592,3.1307638191552734,1.094897220661873,A,6841,Incorrect
2,new_learn,6,572,B,42.79958950776133,83.63481418512711,2.1399794753880665,1.313732589141714,C,86,Incorrect
2,new_learn,6,573,B,42.76410363937821,97.58248504423062,2.1382051819689107,1.5328220906699537,C,1453,Incorrect
2,new_learn,6,574,C,69.9435249222947,43.342417095208646,3.4971762461147353,0.6808210956756607,C,828,Correct
2,new_learn,6,575,A,46.24788766176656,62.221939252380515,2.312394383088328,0.977379936236945,D,1173,Incorrect
2,new_learn,6,576,D,41.288787482469196,10.389457943206493,2.06443937412346,0.1631972237457882,A,6405,Incorrect
2,new_learn,6,577,A,6.913416164409316,68.48766410907103,0.34567080822046575,1.0758017121329144,C,246,Correct
2,new_learn,6,578,A,14.927013147654973,46.26790494061591,0.7463506573827486,0.7267745512921492,D,10,Incorrect
2,new_learn,6,579,B,66.94107492437276,69.50581955223305,3.347053746218638,1.0917948604351657,D,3449,Incorrect
2,new_learn,6,580,A,22.342675761238155,30.841168780650218,1.1171337880619077,0.484451946347068,C,285,Incorrect
2,new_learn,6,581,C,93.6578925885023,57.12069528386648,4.682894629425116,0.8972497833586803,D,547,Incorrect
2,new_learn,6,582,A,13.917080270242021,37.338715075556195,0.6958540135121011,0.586515164879249,C,439,Incorrect
2,new_learn,6,583,D,68.5821334484045,6.168280008821277,3.4291066724202257,0.09689111580498853,B,108,Incorrect
2,new_learn,6,584,C,67.40426954262989,38.429034555575456,3.3702134771314944,0.6036418632217208,D,169,Incorrect
2,new_learn,6,585,D,32.037297189089074,39.617260050789206,1.6018648594544538,0.6223064656545787,C,298,Incorrect
2,new_learn,6,586,B,35.617177933126584,66.12132126646186,1.7808588966563292,1.0386312856818358,D,237,Correct
2,new_learn,6,587,C,66.66350489761993,29.93010336753421,3.3331752448809966,0.47014096430314295,A,411,Incorrect
2,new_learn,6,588,D,31.23674949760065,16.367153337093015,1.5618374748800323,0.25709464341994537,D,207,Incorrect
2,new_learn,6,589,A,3.1244417433985703,53.014684385236315,0.15622208716992853,0.8327527149851994,A,166,Incorrect
2,new_learn,6,590,D,61.104064135221215,49.266578618974016,3.0552032067610604,0.7738776072843636,C,350,Correct
2,new_learn,6,591,C,58.57844524442589,52.390222938751656,2.9289222622212945,0.8229436975215683,C,164,Incorrect
2,new_learn,6,592,A,0.8166099525592863,55.57225876424892,0.04083049762796431,0.872926999385777,D,206,Incorrect
2,new_learn,6,593,B,60.55974971223914,79.59475006542651,3.027987485611957,1.2502714103492982,D,133,Correct
2,new_learn,6,594,D,65.36127763518209,28.82428329415482,3.2680638817591046,0.45277078320953884,D,231,Correct
2,new_learn,6,595,C,65.32606023376769,68.57459491517125,3.2663030116883847,1.07716721804199,B,163,Incorrect
2,new_learn,6,596,A,26.894885085107084,37.8002555978105,1.3447442542553543,0.5937650264494896,C,198,Incorrect
2,new_learn,6,597,A,49.620601445451086,52.06068758286567,2.4810300722725542,0.8177673682558206,B,208,Incorrect
2,new_learn,6,598,C,55.54679714672638,65.18312312805347,2.777339857336319,1.0238941037856586,B,244,Incorrect
2,new_learn,6,599,C,52.826417197072985,50.10146526073323,2.6413208598536495,0.7869919759860188,A,172,Incorrect
2,new_learn,6,600,D,64.81192097990282,57.604192198698826,3.2405960489951413,0.9048445351370336,B,214,Incorrect
2,new_learn,6,601,D,70.45708330681455,46.944866219070754,3.5228541653407275,0.7374082341879418,A,1159,Incorrect
2,new_learn,6,602,B,7.138590693280861,66.09392491418058,0.35692953466404304,1.0382009447865255,C,343,Incorrect
2,new_learn,6,603,A,57.93005152903821,30.67995761349149,2.8965025764519106,0.4819196472549555,D,811,Incorrect
2,new_learn,6,604,C,63.54521289876162,59.7563252012729,3.177260644938081,0.9386501612892078,B,201,Incorrect
2,new_learn,6,605,D,58.81776631693661,47.20958272327333,2.9408883158468306,0.7415663913123756,C,573,Incorrect
2,new_learn,6,606,A,69.3470191098225,40.169791585642066,3.467350955491125,0.6309856107084311,D,468,Incorrect
2,new_learn,6,607,A,43.44926137918499,14.53674586919834,2.1724630689592495,0.2283426701488764,A,397,Correct
2,new_learn,6,608,B,8.690351407017474,37.645310208190295,0.4345175703508737,0.5913311499607974,A,614,Incorrect
2,new_learn,6,609,A,40.13482351402287,6.622356407665979,2.0067411757011433,0.10402373119888367,A,792,Correct
2,new_learn,6,610,C,41.01222156896341,57.223961847742245,2.0506110784481706,0.8988718907508483,A,276,Incorrect
2,new_learn,6,611,B,35.39547361189044,49.65488722493981,1.7697736805945221,0.7799771446035029,B,567,Correct
2,new_learn,6,612,D,62.879362920895815,60.45606348966419,3.1439681460447906,0.9496416246204357,C,686,Incorrect
2,new_learn,6,613,D,70.13446128718799,57.44468198023352,3.5067230643593996,0.902338954484518,C,415,Incorrect
2,new_learn,6,614,D,82.28460429979927,61.87436902156042,4.114230214989964,0.9719203158181904,D,1205,Correct
2,new_learn,6,615,D,78.46859842180821,58.316692793661986,3.9234299210904107,0.9160364683111066,D,588,Correct
2,new_learn,6,616,A,46.7261882614961,20.759941970261924,2.336309413074805,0.32609640591362643,B,750,Incorrect
2,new_learn,6,617,D,70.10487389884271,58.880953556592395,3.5052436949421355,0.9248998556487622,D,686,Correct
2,new_learn,6,618,A,59.182737267399716,31.06529883845989,2.9591368633699857,0.4879725730623857,C,851,Incorrect
2,new_learn,6,619,C,32.89072953143915,87.13887265503915,1.6445364765719575,1.3687742108758376,A,709,Incorrect
2,new_learn,6,620,A,32.96042608760956,11.227137672614408,1.6480213043804781,0.17635546616563313,A,976,Correct
2,new_learn,6,621,C,40.70106105656917,75.21756771422731,2.035053052828459,1.1815147907595467,B,805,Incorrect
2,new_learn,6,622,C,37.182197482937084,61.70441666076188,1.8591098741468541,0.9692507103774658,A,958,Incorrect
2,new_learn,6,623,A,48.938710836611385,19.924505920395195,2.446935541830569,0.31297340712959937,C,740,Incorrect
2,new_learn,6,624,C,28.15640639645103,86.60263065466461,1.4078203198225514,1.3603509412312227,B,811,Incorrect
2,new_learn,6,625,B,44.31921125485793,64.93070083897888,2.2159605627428967,1.0199290637408633,A,896,Incorrect
2,new_learn,6,626,B,20.648159541385237,53.42904810232223,1.0324079770692618,0.8392615250327558,A,621,Incorrect
2,new_learn,6,627,D,81.4467513086745,71.37903871099698,4.072337565433725,1.121219318173848,B,411,Incorrect
2,new_learn,6,628,A,66.11400485084742,16.786056240319233,3.3057002425423714,0.2636747548366601,D,608,Incorrect
2,new_learn,6,629,D,80.54286559971479,74.69674295008106,4.027143279985739,1.1733336944952992,D,678,Correct
2,new_learn,6,630,B,13.247052934875686,44.11109754384444,0.6623526467437842,0.6928954999276222,A,693,Incorrect
2,new_learn,6,631,C,29.906286457281045,86.1578209326583,1.4953143228640522,1.3533638864567208,A,903,Incorrect
2,new_learn,6,632,C,54.83363441754369,98.48758198861537,2.7416817208771844,1.5470393202262824,B,394,Incorrect
2,new_learn,6,633,C,71.22311850621954,68.94536193034817,3.5611559253109766,1.082991212697356,C,421,Correct
2,new_learn,6,634,A,67.70208027463543,26.501329221304122,3.3851040137317714,0.41628190596006776,C,622,Incorrect
2,new_learn,6,635,B,44.031373743859476,64.41749405378994,2.201568687192974,1.0118676304102532,B,624,Correct
2,new_learn,6,636,D,87.48188990597707,38.281721726442896,4.374094495298854,0.6013278787128089,D,699,Correct
2,new_learn,6,637,B,29.40874057241995,72.71466655848441,1.4704370286209976,1.14219931134183,A,742,Incorrect
2,new_learn,6,638,D,70.5679802605194,55.26047360056184,3.52839901302597,0.8680294894870889,B,352,Incorrect
2,new_learn,6,639,C,65.19659096826918,79.53091527571075,3.2598295484134585,1.2492686958172259,C,333,Correct
2,new_learn,6,640,C,68.47474584354995,75.72447777952961,3.423737292177498,1.1894773154454688,D,501,Incorrect
2,new_learn,6,641,D,77.32152812014996,29.324686070950154,3.8660764060074984,0.4606310916466197,C,484,Incorrect
2,new_learn,6,642,D,85.03442708020563,69.67186080250396,4.251721354010282,1.0944030302953855,D,477,Correct
2,new_learn,6,643,D,91.65713822583058,43.10972149974117,4.582856911291529,0.6771659218094441,D,536,Correct
2,new_learn,6,644,A,40.36363819980615,36.330143522786535,2.0181819099903073,0.570672559975245,C,652,Incorrect
2,new_learn,6,645,B,41.32547760671582,49.2567678929946,2.066273880335791,0.7737235007610471,A,686,Incorrect
2,new_learn,6,646,A,32.18697455312956,34.68821871591139,1.6093487276564782,0.544881265420116,B,485,Incorrect
2,new_learn,6,647,C,51.829191089586615,75.63434764303804,2.591459554479331,1.188061554572124,B,720,Incorrect
2,new_learn,6,648,B,34.990622906399665,32.76446251435718,1.7495311453199833,0.5146629736696133,A,694,Incorrect
2,new_learn,6,649,B,9.593661202489647,62.21995291982502,0.47968306012448236,0.9773487349981254,C,365,Incorrect
2,new_learn,6,650,B,6.473608696992613,35.17941572596661,0.32368043484963066,0.5525969700113896,A,406,Incorrect
2,new_learn,6,651,B,25.94468394001837,67.80986394969159,1.2972341970009185,1.0651548521263723,A,588,Incorrect
2,new_learn,6,652,A,39.87516172078822,31.403150385105445,1.9937580860394108,0.4932795327471137,B,340,Incorrect
2,new_learn,6,653,C,73.87849094168581,82.47420225418048,3.6939245470842907,1.295501739562061,C,630,Correct
2,new_learn,6,654,C,27.822568947520672,61.668864749877876,1.3911284473760335,0.9686922622671945,C,711,Correct
2,new_learn,6,655,A,68.64622810017312,35.38427292152294,3.432311405008656,0.5558148593143636,C,637,Incorrect
2,new_learn,6,656,C,57.8385591648422,60.01606042456321,2.8919279582421105,0.9427300726360446,C,706,Correct
2,new_learn,6,657,C,31.552056438705698,81.98950533251566,1.577602821935285,1.2878881381204619,C,279,Correct
2,new_learn,6,658,A,36.43311270601738,45.310828728220486,1.821655635300869,0.7117408333032142,D,541,Incorrect
2,new_learn,6,659,C,57.41922118831257,90.30071431129265,2.8709610594156283,1.4184403034713386,C,278,Correct
2,new_learn,6,660,D,95.88537002847238,34.51979741088182,4.794268501423619,0.5422357097471715,C,276,Incorrect
2,new_learn,6,661,C,58.789400481634,51.91880154089563,2.9394700240816998,0.8155386275203207,D,302,Incorrect
2,new_learn,6,662,B,13.151059938124861,29.733222835042245,0.6575529969062431,0.467048372130585,B,120,Correct
2,new_learn,6,663,A,32.3146242584188,12.192182892539877,1.6157312129209402,0.19151436103213212,C,468,Incorrect
2,new_learn,6,664,A,48.440095713138554,42.76123029637938,2.422004785656928,0.6716918347878338,C,472,Incorrect
2,new_learn,6,665,B,41.57918285584637,36.87026810213234,2.0789591427923186,0.5791568170277253,A,375,Incorrect
2,new_learn,6,666,B,21.712162727336704,34.5713591340649,1.0856081363668353,0.5430456394009634,C,426,Incorrect
2,new_learn,6,667,C,58.31322687155066,59.61871695700829,2.915661343577533,0.9364886160429323,B,616,Incorrect
2,new_learn,6,668,D,67.43311922150792,57.65629642916038,3.3716559610753962,0.9056629864752282,A,276,Incorrect
2,new_learn,6,669,A,55.22938677909294,11.300537436051908,2.761469338954647,0.1775084269535855,B,550,Incorrect
2,new_learn,6,670,D,72.16754749411172,75.90987548021606,3.6083773747055856,1.1923895357178138,C,342,Incorrect
2,new_learn,6,671,B,23.843485800447354,47.955440319587865,1.1921742900223677,0.753282295038405,B,279,Correct
2,new_learn,6,672,D,76.87116850785469,65.19325179925784,3.8435584253927346,1.0240532045808899,B,261,Incorrect
2,new_learn,6,673,A,47.77818626275615,34.745818817624226,2.3889093131378076,0.5457860457020514,D,439,Incorrect
2,new_learn,6,674,C,38.947670135263564,88.51439948181549,1.9473835067631782,1.3903809357449186,C,348,Correct
2,new_learn,6,675,A,48.197984755461704,38.27803277419083,2.409899237773085,0.6012699327863362,C,510,Incorrect
2,new_learn,6,676,C,46.465962698939165,71.29357018859595,2.3232981349469584,1.1198767817634068,A,221,Incorrect
2,new_learn,6,677,A,46.74613269809496,13.26241091604481,2.3373066349047478,0.20832546351367728,B,326,Incorrect
2,new_learn,6,678,A,32.74629000306679,18.627857318231285,1.6373145001533396,0.2926056985153714,C,384,Incorrect
2,new_learn,6,679,D,81.33866868775884,63.483812699853274,4.066933434387942,0.9972013979986473,C,396,Incorrect
2,new_learn,6,680,A,42.92862477822094,37.373400785846094,2.146431238911047,0.5870600067424054,B,486,Incorrect
2,new_learn,6,681,D,63.252931011384284,66.7710776926621,3.1626465505692143,1.0488376357577027,C,412,Incorrect
2,new_learn,6,682,C,47.51799948590047,59.29797506834148,2.3758999742950233,0.9314504142372614,C,589,Correct
2,new_learn,6,683,B,40.796906993157535,29.942783187006825,2.0398453496578766,0.47034013844166306,C,392,Incorrect
2,new_learn,6,684,D,96.1247754540752,63.82066032779353,4.806238772703761,1.0024925881652287,D,591,Correct
2,new_learn,6,685,D,81.65075010162609,73.68834908540347,4.082537505081304,1.1574938807093185,D,589,Correct
2,new_learn,6,686,C,69.12506348910848,74.79731892843402,3.456253174455424,1.1749135382689055,D,526,Incorrect
2,new_learn,6,687,A,67.1230224274366,40.85787233379964,3.3561511213718296,0.641793957825873,B,716,Incorrect
2,new_learn,6,688,D,63.646999881995995,67.4814089373329,3.1823499940998,1.0599954928570683,C,519,Incorrect
2,new_learn,6,689,A,35.859689645764654,45.53545816096541,1.7929844822882328,0.7152693041816716,A,901,Correct
2,new_learn,6,690,B,33.199221720464706,54.737333981055485,1.6599610860232354,0.8598120315598744,A,732,Incorrect
2,new_learn,6,691,D,66.3530184588454,30.417956986803954,3.3176509229422697,0.4778041510347681,C,351,Incorrect
2,new_learn,6,692,A,73.38434204089373,29.83832564992349,3.669217102044686,0.46869932328609765,B,396,Incorrect
2,new_learn,6,693,A,57.86996896203148,29.030415390996446,2.8934984481015738,0.4560086986150724,D,278,Incorrect
2,new_learn,6,694,B,33.90655074820925,73.25957715147153,1.6953275374104624,1.1507587469207883,C,303,Incorrect
2,new_learn,6,695,A,42.08721996656001,1.4022141758433584,2.1043609983280005,0.022025928767944805,A,68,Correct
2,new_learn,6,696,B,36.75055115221457,46.072541145655926,1.8375275576107284,0.7237057839770304,A,384,Incorrect
2,new_learn,6,697,C,48.1210141911235,66.06008120087341,2.4060507095561747,1.0376693289810457,B,419,Incorrect
2,new_learn,6,698,C,62.83850393407328,63.43525707563622,3.1419251967036637,0.9964386880369934,A,372,Incorrect
2,new_learn,6,699,C,32.51650737153534,58.63272696146133,1.625825368576767,0.9210007214103156,C,373,Correct
2,new_learn,6,700,B,39.85048621263677,29.761503656443526,1.9925243106318384,0.4674926062343438,A,341,Incorrect
2,new_learn,6,701,A,49.99919384582352,3.9285173482851405,2.499959692291176,0.06170900620436326,B,287,Incorrect
2,new_learn,6,702,D,100.50744440553018,48.16157815168595,5.025372220276509,0.7565203005331363,C,435,Incorrect
2,new_learn,6,703,A,68.87614838179692,29.176789981690206,3.4438074190898464,0.45830794530905117,D,368,Incorrect
2,new_learn,6,704,A,54.32742603348587,8.446741026947226,2.7163713016742936,0.13268109778516457,B,554,Incorrect
2,new_learn,6,705,C,58.291688941484914,66.03864666189762,2.9145844470742457,1.0373326360301482,C,328,Correct
2,new_learn,6,706,D,89.30658153672569,31.966177056824904,4.4653290768362845,0.5021235350253586,C,541,Incorrect
2,new_learn,6,707,A,36.32848128821767,17.126968133963434,1.8164240644108833,0.2690297863396301,B,492,Incorrect
2,new_learn,6,708,A,53.92517516390782,10.003470776418407,2.6962587581953907,0.15713415150798124,A,359,Correct
2,new_learn,6,709,B,23.686018794539347,52.412157076301625,1.1843009397269675,0.8232882381485174,A,352,Incorrect
2,new_learn,6,710,B,20.774401946433386,72.62848374019529,1.0387200973216693,1.1408455547978165,B,373,Correct
2,new_learn,6,711,B,22.096560268350864,30.60455211985822,1.104828013417543,0.48073518053076264,B,652,Correct
2,new_learn,6,712,A,49.99378285772987,5.952656927541426,2.4996891428864934,0.09350411636452266,B,390,Incorrect
2,new_learn,6,713,C,25.30837167022385,77.30075557323447,1.2654185835111924,1.2142374291290683,A,725,Incorrect
2,new_learn,6,714,A,65.04431239247215,29.104187202330394,3.252215619623607,0.4571675035177162,B,493,Incorrect
2,new_learn,6,715,C,64.01460362402385,65.56542577974855,3.2007301812011923,1.0298992997957244,C,526,Correct
2,new_learn,6,716,D,54.58047650615357,59.6972335062116,2.7290238253076784,0.9377219511137441,D,368,Correct
2,new_learn,6,717,B,45.871474400620585,51.65657987585304,2.293573720031029,0.8114196592377714,C,355,Incorrect
2,new_learn,6,718,D,57.74407192762382,69.98919558784137,2.8872035963811915,1.099387713447108,D,350,Correct
2,new_learn,6,719,C,57.96156223582353,58.34896696344133,2.8980781117911767,0.916543429784504,D,509,Incorrect
2,new_learn,6,720,A,40.98820840766106,11.563408276866856,2.049410420383053,0.1816375924653216,B,420,Incorrect
2,new_learn,6,721,D,72.13566220293211,54.93042226916948,3.6067831101466057,0.8628450552970401,C,2142,Incorrect
2,new_learn,6,722,C,55.99009639461823,55.69773101767731,2.7995048197309114,0.874897912933777,D,392,Incorrect
2,new_learn,6,723,B,10.037319234128606,43.13831843617671,0.5018659617064303,0.6776151214365495,A,885,Incorrect
2,new_learn,6,724,D,91.1627011666243,65.20429150263784,4.558135058331215,1.0242266158360722,B,517,Incorrect
2,new_learn,6,725,B,20.82618493996068,24.227349163435775,1.041309246998034,0.3805623107390233,D,501,Incorrect
2,new_learn,6,726,C,53.00351980163568,59.31173659136468,2.650175990081784,0.9316665797354211,C,469,Correct
2,new_learn,6,727,B,14.090984269366475,45.042790882603,0.7045492134683238,0.7075305046698345,A,207,Incorrect
2,new_learn,6,728,B,12.743151274969264,33.53305865876376,0.6371575637484632,0.5267360536738391,B,318,Correct
2,new_learn,6,729,C,68.45601049069887,65.39197714509348,3.4228005245349435,1.0271747750136868,C,693,Correct
2,new_learn,6,730,A,30.54019869176868,27.80608194086115,1.527009934588434,0.43677691375262606,C,582,Incorrect
2,new_learn,6,731,A,59.65856776026491,3.9961804291481755,2.9829283880132453,0.06277185539315608,D,388,Incorrect
2,new_learn,6,732,D,63.18248409449817,67.21104683543443,3.1591242047249084,1.0557486548914017,B,493,Incorrect
2,new_learn,6,733,B,37.42461026288547,39.77588175441336,1.8712305131442735,0.6247980895486065,C,325,Incorrect
2,new_learn,6,734,C,74.96352114754646,81.50541429898801,3.748176057377323,1.280284053947466,B,637,Incorrect
2,new_learn,6,735,B,40.1438226652562,38.47239554306331,2.0071911332628103,0.6043229760204419,D,437,Incorrect
2,new_learn,6,736,B,45.95287685546315,48.51405984800694,2.297643842773158,0.7620570700715708,B,933,Correct
2,new_learn,6,737,A,64.1431326109483,17.46369380620555,3.207156630547415,0.27431906083058466,B,407,Incorrect
2,new_learn,6,738,D,51.330392115646,38.68057823258316,2.5665196057823,0.6075931020604425,C,494,Incorrect
2,new_learn,6,739,C,55.217611148726654,54.58953338762346,2.760880557436333,0.857490385267263,D,1421,Incorrect
2,new_learn,6,740,B,28.31422494884471,44.98999763752722,1.4157112474422353,0.7067012303153883,C,383,Incorrect
2,new_learn,6,741,C,45.06352253635724,94.75393039404983,2.2531761268178623,1.488391258123528,B,420,Incorrect
2,new_learn,6,742,B,43.129065897786596,62.478029491604914,2.15645329488933,0.9814025923079623,B,454,Correct
2,new_learn,6,743,D,82.89580439662963,54.50958795302115,4.144790219831481,0.8562346053170897,B,349,Incorrect
2,new_learn,6,744,A,43.109660515993326,21.02864174261564,2.155483025799666,0.3303171320678648,D,542,Incorrect
2,new_learn,6,745,A,40.37756903689569,31.111001366828276,2.0188784518447846,0.48869046669924854,C,562,Incorrect
2,new_learn,6,746,D,71.70574867481442,63.361949488625406,3.585287433740721,0.9952871751529656,B,583,Incorrect
2,new_learn,6,747,B,15.953232762686751,49.31886402262553,0.7976616381343375,0.7746989044843715,A,975,Incorrect
2,new_learn,6,748,D,69.16552492075041,56.208089757855504,3.4582762460375203,0.8829146092779728,B,379,Incorrect
2,new_learn,6,749,D,74.2743194710197,36.644785432801086,3.7137159735509844,0.5756149435403108,B,377,Incorrect
2,new_learn,6,750,B,37.65924481491658,28.4374874292185,1.882962240745829,0.44669500797092465,B,2075,Correct
2,new_learn,6,751,A,33.47328592487834,30.401520583766718,1.6736642962439168,0.4775459686196021,B,4300,Incorrect
2,new_learn,6,752,B,31.087873473811506,70.50737211685333,1.5543936736905752,1.1075272113311414,B,805,Correct
2,new_learn,6,753,C,59.086803597889926,76.8531195393947,2.954340179894496,1.207205978752103,B,1725,Incorrect
2,new_learn,6,754,B,26.567609667320834,36.82037947439512,1.3283804833660418,0.5783731682957405,C,5008,Incorrect
2,new_learn,6,755,A,61.92027344188604,31.139673878524597,3.0960136720943017,0.48914085345977426,A,54,Correct
2,new_learn,6,756,A,55.09854405239224,23.119623849520636,2.754927202619612,0.363162202197067,A,309,Correct
2,new_learn,6,757,D,59.127991288700386,47.17132861511534,2.9563995644350194,0.7409654971865817,B,356,Incorrect
2,new_learn,6,758,C,52.02495856067758,98.27442724045704,2.601247928033879,1.5436910932718224,C,325,Correct
2,new_learn,6,759,B,4.3331067805413745,53.24618667011439,0.21665533902706874,0.8363891443725106,D,87,Incorrect
2,new_learn,6,760,C,53.192893475116456,99.78206230836093,2.659644673755823,1.567372969539928,B,342,Incorrect
2,new_learn,6,761,D,96.52848384664784,53.48868092739849,4.826424192332393,0.8401982352586178,D,404,Correct
2,new_learn,6,762,D,57.66339449420481,48.51021444708439,2.8831697247102404,0.7619966666551289,C,701,Incorrect
2,new_learn,6,763,B,24.160584129855923,25.900233943130274,1.2080292064927962,0.4068399234099754,B,576,Correct
2,new_learn,6,764,A,46.73452114353024,46.495981752218654,2.3367260571765116,0.730357173471076,B,565,Incorrect
2,new_learn,6,765,B,16.48822230839788,58.87741486850265,0.824411115419894,0.9248442700662319,C,565,Incorrect
2,new_learn,6,766,B,7.481873123654161,51.86182674544008,0.37409365618270807,0.814643669526106,D,348,Incorrect
2,new_learn,6,767,C,61.613839305832904,66.90110668268483,3.080691965291645,1.0508801263567482,A,422,Incorrect
2,new_learn,6,768,B,25.483173677484217,29.27858198691767,1.274158683874211,0.459906890388135,B,324,Correct
2,new_learn,6,769,D,81.94203258515535,50.10058344673777,4.097101629257767,0.7869781244841688,C,399,Incorrect
2,new_learn,6,770,A,48.43665155334479,36.697263986434834,2.4218325776672396,0.5764392747331448,D,878,Incorrect
2,new_learn,6,771,B,38.04689449154961,40.85449001545904,1.9023447245774805,0.6417408284936185,A,741,Incorrect
2,new_learn,6,772,D,81.08409051942324,63.55941645972126,4.054204525971162,0.9983889790815723,B,582,Incorrect
2,new_learn,6,773,C,53.03422293481194,73.62986801797643,2.651711146740597,1.156575262250304,D,565,Incorrect
2,new_learn,6,774,B,30.590017635422512,71.93707489723924,1.5295008817711255,1.1299849300895277,C,812,Incorrect
2,new_learn,6,775,B,21.194209092750633,70.82717925238305,1.0597104546375318,1.1125507300688702,B,855,Correct
2,new_learn,6,776,B,2.059278576229328,63.26511021401832,0.1029639288114664,0.9937660273845429,B,1895,Correct
2,new_learn,6,777,B,32.59263998234242,29.911764070832895,1.6296319991171209,0.46985289130419877,B,1886,Correct
2,new_learn,6,778,A,33.39654443577054,36.987202611328705,1.6698272217885266,0.5809936200029373,B,685,Incorrect
2,new_learn,6,779,A,54.64196923056183,32.14332260170355,2.732098461528091,0.5049061307373932,A,661,Correct
2,new_learn,6,780,D,78.92037781311039,60.82991015901035,3.9460188906555196,0.9555139943703703,D,733,Correct
2,new_learn,6,781,D,88.75887189893523,27.377755650367764,4.437943594946762,0.4300487801148591,D,860,Correct
2,new_learn,6,782,B,11.472053291131763,71.91934166837378,0.5736026645565881,1.1297063771818867,A,528,Incorrect
2,new_learn,6,783,B,30.75087561337964,56.05827394256883,1.537543780668982,0.8805613079544918,B,564,Correct
2,new_learn,6,784,B,32.24976589455293,35.65307542452061,1.6124882947276464,0.5600371991577837,A,1120,Incorrect
2,new_learn,6,785,B,30.57026883772975,46.51137674096259,1.5285134418864874,0.7305989973887763,B,611,Correct
2,new_learn,6,786,C,28.348300909648266,90.14745530672678,1.4174150454824133,1.4160329166571355,A,790,Incorrect
2,new_learn,6,787,A,33.36031916079716,12.172582620903093,1.6680159580398581,0.19120648068521973,B,662,Incorrect
2,new_learn,6,788,C,34.04029178037533,54.43332054249422,1.7020145890187663,0.855036599633991,B,711,Incorrect
2,new_learn,6,789,D,68.41535915281867,36.38296468089711,3.4207679576409333,0.5715022727866164,D,612,Correct
2,new_learn,6,790,A,41.41826538975073,47.59807765734182,2.0709132694875363,0.7476688554665075,C,613,Incorrect
2,new_learn,6,791,D,93.82441223998289,59.83849942642564,4.691220611999145,0.9399409509994793,D,599,Correct
2,new_learn,6,792,D,53.47675533790999,38.62385199861282,2.6738377668955,0.6067020484609075,C,805,Incorrect
2,new_learn,6,793,B,27.756677672398563,55.800643202715555,1.3878338836199282,0.8765144537561821,B,414,Correct
2,new_learn,6,794,B,23.284649040558865,50.97796170855641,1.1642324520279432,0.800759949992913,B,541,Correct
2,new_learn,6,795,A,67.02420008841617,5.356313560612676,3.351210004420808,0.08413677666172086,A,540,Correct
2,new_learn,6,796,D,74.16815169059949,68.91935090666377,3.708407584529974,1.0825826324927599,D,864,Correct
2,new_learn,6,797,D,90.00050849838716,43.91527259287481,4.500025424919358,0.6898194887908434,D,732,Correct
2,new_learn,6,798,A,45.574813970292,50.093367745086965,2.2787406985146,0.7868647805076855,B,1907,Incorrect
2,new_learn,6,799,A,60.69828276256354,22.879211294229965,3.0349141381281766,0.3593858106094074,D,711,Incorrect
2,new_learn,6,800,A,45.228506586866835,0.12144175366820065,2.261425329343342,0.0019076026058154024,A,1030,Correct
2,new_learn,6,801,A,31.73183738355668,40.67921247807711,1.5865918691778342,0.6389875753747265,B,720,Incorrect
2,new_learn,6,802,D,81.1431310209012,38.48406704757666,4.057156551045059,0.6045063115846193,D,820,Correct
2,new_learn,6,803,C,59.24915332542892,57.411975050093545,2.9624576662714457,0.9018251952272719,D,663,Incorrect
2,new_learn,6,804,B,15.13604187708803,69.84532004541586,0.7568020938544016,1.097127721711532,A,762,Incorrect
2,new_learn,6,805,A,70.84094614917608,15.286466958443869,3.542047307458804,0.24011926147995186,D,735,Incorrect
2,new_learn,6,806,C,55.1118973985399,80.75855401468534,2.755594869926995,1.2685524000353499,D,813,Incorrect
2,new_learn,6,807,B,35.381402624995225,64.19320014267134,1.7690701312497612,1.0083444298931779,C,438,Incorrect
2,new_learn,6,808,D,83.2778990301224,74.02528796405666,4.16389495150612,1.1627865042387469,B,331,Incorrect
2,new_learn,6,809,C,56.01014643744243,66.20221673820159,2.8005073218721215,1.0399019887804666,A,383,Incorrect
2,new_learn,6,810,A,56.59218718753393,24.67106884741503,2.8296093593766964,0.38753224323623525,D,654,Incorrect
2,new_learn,6,811,B,13.138782825503748,41.04916103180589,0.6569391412751874,0.6447987136677289,A,645,Incorrect
2,new_learn,6,812,D,77.37702455936889,61.37141891122805,3.868851227968445,0.9640199939594788,B,349,Incorrect
2,new_learn,6,813,B,17.046256379097333,63.635314340762775,0.8523128189548665,0.9995811802090876,B,716,Correct
2,new_learn,6,814,D,79.46862546158883,50.93885494447706,3.9734312730794414,0.800145662379226,A,989,Incorrect
2,new_learn,6,815,B,36.331872785647725,26.027008015206825,1.8165936392823863,0.40883128587748213,B,735,Correct
2,new_learn,6,816,A,55.50981995704818,8.176336634653605,2.775490997852409,0.12843359552352432,C,1068,Incorrect
2,new_learn,6,817,C,42.47856802056241,64.20316893413727,2.1239284010281207,1.0085010193033503,C,573,Correct
2,new_learn,6,818,B,37.091368173066215,26.657424790695558,1.8545684086533105,0.4187338494303579,C,497,Incorrect
2,new_learn,6,819,C,29.52215466572851,63.78264651114636,1.4761077332864254,1.0018954685296604,A,787,Incorrect
2,new_learn,6,820,C,73.46502278735366,68.12211965234965,3.6732511393676828,1.0700597532339329,B,396,Incorrect
2,new_learn,6,821,C,33.459099510985624,54.00176221104054,1.6729549755492812,0.8482576972155391,C,399,Correct
2,new_learn,6,822,D,57.50306342305766,48.56600016971277,2.875153171152883,0.7628729467370514,C,374,Incorrect
2,new_learn,6,823,A,54.53031618988491,28.671858620610127,2.7265158094942454,0.45037650203636975,C,259,Incorrect
2,new_learn,6,824,B,20.892196907872588,51.32909117286145,1.0446098453936294,0.8062754787205111,C,425,Incorrect
2,new_learn,6,825,D,67.81253492156875,43.88895014016523,3.3906267460784374,0.689406016670559,D,876,Correct
2,new_learn,6,826,D,79.44437298015272,64.32531785451276,3.972218649007636,1.0104197300578284,B,758,Incorrect
2,new_learn,6,827,A,57.076450199860304,44.68753202749738,2.853822509993015,0.7019501116232219,C,627,Incorrect
2,new_learn,6,828,C,52.72158888172282,52.012132919136846,2.6360794440861413,0.8170046733814809,D,508,Incorrect
2,new_learn,6,829,B,17.990554299173713,46.078537743119846,0.8995277149586856,0.7237999783097265,B,469,Correct
2,new_learn,6,830,D,75.73797586696806,36.6667756473868,3.786898793348403,0.5759603650232775,A,663,Incorrect
2,new_learn,6,831,B,2.3572554498111096,37.27031865236161,0.11786277249055548,0.5854407963760493,B,862,Correct
2,new_learn,6,832,A,64.25990277062697,12.269126701705595,3.2129951385313484,0.19272299156020334,D,718,Incorrect
2,new_learn,6,833,C,64.54897803535346,94.38860069522408,3.227448901767673,1.482652672633682,C,610,Correct
2,new_learn,6,834,B,18.623144338403925,66.62672417047268,0.9311572169201964,1.0465701359335526,B,1079,Correct
2,new_learn,6,835,D,79.49955206006496,33.22782516700289,3.9749776030032478,0.5219414571971117,C,723,Incorrect
2,new_learn,6,836,C,47.219731823284846,65.30418062891434,2.3609865911642425,1.0257956705624909,C,952,Correct
2,new_learn,6,837,B,22.368342167563146,31.499309399134287,1.1184171083781573,0.494789995007361,C,670,Incorrect
2,new_learn,6,838,B,44.449990046693614,39.73717422307625,2.2224995023346805,0.6241900730681702,D,667,Incorrect
2,new_learn,6,839,C,62.61046572635467,96.31459465277162,3.1305232863177332,1.5129061149731304,C,534,Correct
2,new_learn,6,840,C,25.188131562435082,79.53105834924233,1.259406578121754,1.2492709432110043,C,542,Correct
2,new_learn,6,841,B,25.332138423629182,71.37937951392004,1.266606921181459,1.121224671493645,C,596,Incorrect
2,new_learn,6,842,A,30.83825436547272,16.32738819254823,1.541912718273636,0.2564700139900913,C,510,Incorrect
2,new_learn,6,843,A,52.00975444305188,45.42017270274572,2.6004877221525944,0.7134584044386281,A,535,Correct
2,new_learn,6,844,C,66.1659767361275,82.81302873225036,3.308298836806375,1.3008240134337907,A,566,Incorrect
2,new_learn,6,845,A,51.69887944687308,33.54835299280574,2.584943972343654,0.5269762965111783,B,291,Incorrect
2,new_learn,6,846,B,49.44709341341381,42.12931225714538,2.4723546706706907,0.6617656894391918,C,357,Incorrect
2,new_learn,6,847,A,45.527040204761114,50.5249890594656,2.2763520102380554,0.793644672259609,C,462,Incorrect
2,new_learn,6,848,C,36.45184745601477,58.23650121196995,1.8225923728007385,0.9147768218914893,B,303,Incorrect
2,new_learn,6,849,A,43.68391910879308,30.008313376984486,2.184195955439654,0.4713694842587739,C,9245,Incorrect
2,new_learn,6,850,B,14.986572392117834,71.06760182613682,0.7493286196058917,1.1163272790261802,A,318,Incorrect
2,new_learn,6,851,D,87.22242891014297,64.6640270980676,4.361121445507148,1.0157401624141025,B,481,Incorrect
2,new_learn,6,852,C,69.1427886546663,61.736870088744304,3.4571394327333156,0.9697604876321327,D,448,Incorrect
2,new_learn,6,853,C,28.1791865588746,75.88976552828542,1.40895932794373,1.1920736493315671,A,604,Incorrect
2,new_learn,6,854,A,32.26209412356034,20.97271660084136,1.6131047061780168,0.32943866199511956,B,199,Incorrect
2,new_learn,6,855,A,72.54407989048657,18.272269025101807,3.6272039945243284,0.28702013066838084,A,2893,Correct
2,new_learn,6,856,A,61.517731601565885,6.96649472724074,3.075886580078294,0.10942944328185766,A,440,Correct
2,new_learn,6,857,D,79.58004659409548,71.61179250186,3.979002329704774,1.1248754061712,A,475,Incorrect
2,new_learn,6,858,A,29.222367687592467,28.72377725917681,1.4611183843796232,0.4511920381038971,B,470,Incorrect
2,new_learn,6,859,B,34.269764822697184,39.57532774745687,1.7134882411348593,0.6216477945740939,A,1080,Incorrect
2,new_learn,6,860,A,54.509219596187094,49.0963990688806,2.725460979809355,0.7712044331625402,A,603,Correct
2,new_learn,6,861,A,56.27645704907881,44.57571711688721,2.8138228524539404,0.7001937271145482,A,424,Correct
2,new_learn,6,862,B,29.466562902477506,74.70713251931525,1.4733281451238753,1.1734968934671994,A,427,Incorrect
2,new_learn,6,863,C,51.40674375274994,74.7291334209737,2.570337187637497,1.1738424828223122,C,541,Correct
2,new_learn,6,864,C,25.20968606551117,84.76431275286136,1.2604843032755584,1.3314747111548844,D,337,Incorrect
2,new_learn,6,865,D,62.532678740680346,33.73706225489911,3.126633937034017,0.5299405346684627,B,396,Incorrect
2,new_learn,6,866,B,34.82276161997052,45.07227286338846,1.741138080998526,0.7079936065410789,A,476,Incorrect
2,new_learn,6,867,C,71.09784852972983,77.25948277026552,3.5548924264864916,1.2135891174560667,B,2669,Incorrect
2,new_learn,6,868,A,64.1279559502159,12.6225306021011,3.206397797510795,0.19827424704636584,B,720,Incorrect
2,new_learn,6,869,D,83.52555516912862,74.71462992538149,4.176277758456431,1.1736146624462929,B,2461,Incorrect
2,new_learn,6,870,B,49.1999860111141,38.498495559249605,2.459999300555705,0.6047329541159892,C,693,Incorrect
2,new_learn,6,871,B,18.22662202431372,74.94864776766161,0.911331101215686,1.1772906061168738,A,728,Incorrect
2,new_learn,6,872,C,35.51947327861873,96.81785809704034,1.7759736639309367,1.5208113586698049,B,44,Incorrect
2,new_learn,6,873,B,34.02389141292499,56.71535103179835,1.7011945706462495,0.89088265073632,C,223,Incorrect
2,new_learn,6,874,B,4.074033996624248,42.69175487738726,0.2037016998312124,0.6706005174582802,D,110,Incorrect
2,new_learn,6,875,B,19.269137461954948,49.43125381861428,0.9634568730977474,0.7764643192714552,B,356,Correct
2,new_learn,6,876,C,28.870780431348994,68.4080766160745,1.4435390215674497,1.0745515547163367,B,671,Incorrect
2,new_learn,6,877,B,35.64092550669272,29.892689763962004,1.782046275334636,0.4695532727925091,B,390,Correct
2,new_learn,6,878,D,87.80104605061989,42.79051868877265,4.390052302530995,0.6721518957797247,B,325,Incorrect
2,new_learn,6,879,A,42.38174582872214,11.510093202083096,2.1190872914361067,0.18080012122899042,C,351,Incorrect
2,new_learn,6,880,C,76.36195067947669,77.43669540956768,3.818097533973835,1.2163727670848414,D,477,Incorrect
2,new_learn,6,881,B,36.18386087593897,27.789389542976114,1.8091930437969483,0.43651471017979393,C,373,Incorrect
2,new_learn,6,882,A,42.05111358757297,43.05242746010231,2.102555679378648,0.6762659491393245,C,3124,Incorrect
2,new_learn,6,883,D,67.33545408301256,66.63374703952455,3.366772704150628,1.0466804509026546,C,445,Incorrect
2,new_learn,6,884,C,57.95519172532631,54.692457832223226,2.8977595862663157,0.8591071186624103,C,862,Correct
2,new_learn,6,885,D,65.03859887077867,61.860488199951604,3.2519299435389337,0.9717022763822303,D,399,Correct
2,new_learn,6,886,C,74.32833392818866,65.8945252787061,3.716416696409433,1.0350687826368499,D,867,Incorrect
2,new_learn,6,887,A,45.50413683812399,23.477295383285945,2.2752068419061997,0.3687804935114435,D,358,Incorrect
2,new_learn,6,888,D,86.91846156533713,37.48224766961521,4.345923078266856,0.5887697695944815,C,348,Incorrect
2,new_learn,6,889,D,73.42439442511989,64.59953407890906,3.6712197212559943,1.014727108438121,D,312,Correct
2,new_learn,6,890,D,98.13299958524031,51.71525559183472,4.906649979262016,0.8123413352291321,C,380,Incorrect
2,new_learn,6,891,A,68.36532105074936,9.766488303546364,3.4182660525374677,0.1534116395289595,D,363,Incorrect
2,new_learn,6,892,B,24.13876166901286,30.718970950602454,1.2069380834506431,0.48253246732125465,C,430,Incorrect
2,new_learn,6,893,B,6.319581176239595,48.30352974009905,0.31597905881197974,0.7587500708697563,A,744,Incorrect
2,new_learn,6,894,B,16.027322513647583,53.981869920179754,0.8013661256823792,0.8479452298413828,C,685,Incorrect
2,new_learn,6,895,A,65.40412359823088,30.66362418932182,3.270206179911544,0.48166308242805855,B,2854,Incorrect
2,new_learn,6,896,A,50.805978594359736,2.481112610867946,2.540298929717987,0.03897322575515865,C,658,Incorrect
2,new_learn,6,897,C,51.89363311149205,95.01602477670953,2.594681655574602,1.4925082270590824,C,759,Correct
2,new_learn,6,898,A,62.746039694347,6.438241333982969,3.13730198471735,0.10113165838439524,C,565,Incorrect
