experiment,condition,subject,trial,cat,x,y,xt,yt,resp,rt,fb
2,new_learn,12,0,C,81.45003702748426,49.497149980384776,4.072501851374213,0.7774994137600449,A,20783,Incorrect
2,new_learn,12,1,D,40.427775963431046,10.953253898245732,2.021388798171552,0.17205330989816275,B,1657,Incorrect
2,new_learn,12,2,C,64.35336540306099,41.55271957542768,3.2176682701530495,0.652708592774202,A,1682,Incorrect
2,new_learn,12,3,C,84.31630918462275,62.52051980891743,4.215815459231138,0.9820700286515507,A,3287,Incorrect
2,new_learn,12,4,B,59.91115440764037,54.09139766713563,2.9955577203820183,0.8496656876673867,A,6576,Incorrect
2,new_learn,12,5,A,33.748419552598925,43.83017668892806,1.6874209776299463,0.688482805457395,A,861,Correct
2,new_learn,12,6,B,46.52343513896236,84.55857820499125,2.326171756948118,1.3282430404339924,C,1286,Incorrect
2,new_learn,12,7,A,5.577358746038879,34.73279399090882,0.2788679373019439,0.5455814522024341,C,1077,Incorrect
2,new_learn,12,8,D,41.972334579410365,6.399819076706919,2.098616728970518,0.10052812297843136,C,1172,Incorrect
2,new_learn,12,9,D,65.30746374136397,44.059389070729054,3.2653731870681986,0.692083265131284,C,1439,Incorrect
2,new_learn,12,10,D,33.76085079234002,38.47434089523028,1.6880425396170011,0.6043535335408239,C,780,Incorrect
2,new_learn,12,11,C,52.13510968002086,37.09976753551702,2.606755484001043,0.5827617856973468,B,1840,Incorrect
2,new_learn,12,12,B,67.70087166391424,78.71862984895945,3.385043583195712,1.2365093461707262,A,1508,Incorrect
2,new_learn,12,13,C,65.67371272378873,47.48948527578557,3.2836856361894364,0.7459630903258431,B,1885,Incorrect
2,new_learn,12,14,C,65.6252027945011,54.337698015872824,3.281260139725055,0.8535345644982338,B,2589,Incorrect
2,new_learn,12,15,B,46.61158841538777,82.98972796323136,2.3305794207693884,1.3035995984635151,A,2143,Incorrect
2,new_learn,12,16,B,43.77076174602283,78.32314031940442,2.1885380873011413,1.230297011167617,B,3660,Correct
2,new_learn,12,17,C,73.89175242854795,37.085434023557596,3.694587621427397,0.5825366354179876,A,1487,Incorrect
2,new_learn,12,18,B,27.87523884908192,72.63256354110935,1.3937619424540961,1.1409096401607148,A,1500,Incorrect
2,new_learn,12,19,A,4.028698164851416,41.51618735093574,0.20143490824257082,0.652134745933786,D,1456,Incorrect
2,new_learn,12,20,A,33.55441989928814,36.31406668555462,1.6777209949644072,0.5704200256065414,B,1950,Incorrect
2,new_learn,12,21,B,30.995937494759733,69.3152052338655,1.5497968747379867,1.088800697723903,B,562,Correct
2,new_learn,12,22,A,42.47124479137827,61.63835000713996,2.1235622395689133,0.9682129378091362,A,1480,Correct
2,new_learn,12,23,A,41.451589283179686,46.34903109554397,2.0725794641589843,0.728048877953829,A,901,Correct
2,new_learn,12,24,A,2.738324487512564,54.61224921785316,0.1369162243756282,0.857847204694112,C,1931,Incorrect
2,new_learn,12,25,D,27.91581443669899,30.00666281244243,1.3957907218349497,0.47134355725157584,C,2086,Incorrect
2,new_learn,12,26,D,73.72621584514064,14.393775488447348,3.686310792257032,0.22609689665963512,A,1211,Incorrect
2,new_learn,12,27,B,49.39592836254003,63.45692046033044,2.4697964181270016,0.9967789756880296,A,1689,Incorrect
2,new_learn,12,28,C,72.85921439914169,64.38753683053413,3.6429607199570846,1.0113970634477414,A,1012,Incorrect
2,new_learn,12,29,B,50.016501717837436,89.69383351281695,2.5008250858918717,1.4089074421808587,B,792,Correct
2,new_learn,12,30,C,58.168144921028386,42.4877449259034,2.908407246051419,0.6673959366340757,C,1638,Correct
2,new_learn,12,31,D,51.257213538855275,15.17158114958665,2.5628606769427638,0.23831463941441405,A,2122,Incorrect
2,new_learn,12,32,A,32.26196923084084,54.533752464095656,1.6130984615420418,0.856614180569436,B,1120,Incorrect
2,new_learn,12,33,C,60.032562488611866,36.30536808415253,3.0016281244305936,0.5702833882952346,D,1195,Incorrect
2,new_learn,12,34,A,21.171025005301715,62.27019420217989,1.0585512502650858,0.9781379232158902,D,996,Incorrect
2,new_learn,12,35,D,55.82125916507768,6.164884029409013,2.7910629582538835,0.09683777188512198,D,789,Correct
2,new_learn,12,36,D,60.05580917004666,37.82568791233193,3.0027904585023326,0.5941645163118111,C,1591,Incorrect
2,new_learn,12,37,D,42.13089635952266,29.912071705733727,2.106544817976133,0.46985772362192096,D,4118,Correct
2,new_learn,12,38,A,40.88943820280727,51.956442751529956,2.0444719101403637,0.8161298942743258,D,1174,Incorrect
2,new_learn,12,39,B,54.72166528384298,85.53708534570616,2.736083264192149,1.343613394657768,B,2437,Correct
2,new_learn,12,40,B,53.43378429891521,83.42068835733038,2.67168921494576,1.3103691085039633,B,835,Correct
2,new_learn,12,41,A,44.98706193765888,37.333469361820235,2.249353096882944,0.5864327654005703,A,855,Correct
2,new_learn,12,42,D,65.82956558154716,30.9335674536087,3.2914782790773582,0.485903341307907,A,1174,Incorrect
2,new_learn,12,43,A,42.91926559029107,35.69925797149668,2.1459632795145533,0.5607626329093042,A,3910,Correct
2,new_learn,12,44,D,58.52182840950033,4.178929920228118,2.9260914204750166,0.06564247768627618,C,2052,Incorrect
2,new_learn,12,45,B,25.916995112459997,78.89299350313576,1.2958497556229998,1.2392482440457928,B,997,Correct
2,new_learn,12,46,C,84.6767349543209,38.73753184025686,4.233836747716046,0.6084877272377581,A,1333,Incorrect
2,new_learn,12,47,D,58.484100878117175,20.67944556265962,2.9242050439058587,0.3248319712998075,A,1413,Incorrect
2,new_learn,12,48,D,49.96128195908068,20.92196660752358,2.498064097954034,0.32864148296423523,C,1823,Incorrect
2,new_learn,12,49,B,46.43053189344734,72.59390768087982,2.321526594672367,1.1403024353281386,B,899,Correct
2,new_learn,12,50,A,47.02579701328423,39.98214333797443,2.3512898506642115,0.6280380389267728,D,1717,Incorrect
2,new_learn,12,51,C,97.30388532038045,51.30613727443502,4.865194266019023,0.8059149197271726,C,1512,Correct
2,new_learn,12,52,B,31.78059561777253,92.3276898674036,1.5890297808886265,1.4502799610517598,B,1668,Correct
2,new_learn,12,53,A,48.21978927841084,63.22962548331178,2.4109894639205423,0.9932086345380313,C,932,Incorrect
2,new_learn,12,54,D,49.0616805870224,1.021691304131764,2.4530840293511202,0.01604868947648462,C,1718,Incorrect
2,new_learn,12,55,B,26.453326788731953,78.7407857085917,1.3226663394365976,1.2368573695999994,B,917,Correct
2,new_learn,12,56,C,59.21560588265369,70.87662174566142,2.960780294132684,1.1133273709371625,D,1519,Incorrect
2,new_learn,12,57,B,74.28149127059099,73.96911381022139,3.71407456352955,1.1619041226936941,A,959,Incorrect
2,new_learn,12,58,B,64.56043109528912,97.45108778527934,3.2280215547644557,1.530758107352838,D,3485,Incorrect
2,new_learn,12,59,A,27.425004319180182,73.05915245492167,1.371250215959009,1.1476104831493932,B,676,Incorrect
2,new_learn,12,60,A,28.810931605198412,32.278239518569464,1.4405465802599207,0.5070254007117478,A,2177,Correct
2,new_learn,12,61,A,39.3371903061205,31.869129555705328,1.9668595153060249,0.500599116442526,A,2861,Correct
2,new_learn,12,62,C,57.05074875194107,55.74924671026322,2.8525374375970536,0.8757071195406395,C,2220,Correct
2,new_learn,12,63,B,58.62211136943752,60.871183740934164,2.931105568471876,0.9561623182791662,A,1643,Incorrect
2,new_learn,12,64,C,79.172839919117,44.26573657504601,3.95864199595585,0.6953245641495279,C,1206,Correct
2,new_learn,12,65,D,43.22980109313154,23.881871434274693,2.1614900546565767,0.37513555925946657,B,2447,Incorrect
2,new_learn,12,66,D,41.75703018011335,37.727169085790706,2.0878515090056675,0.5926169862033002,B,1285,Incorrect
2,new_learn,12,67,A,41.808742456888325,47.56416856524839,2.090437122844416,0.7471362126934544,A,1571,Correct
2,new_learn,12,68,A,42.58953200231846,41.95315331779958,2.129476600115923,0.6589985912906271,A,1128,Correct
2,new_learn,12,69,B,30.874257869253935,81.72236224671657,1.5437128934626967,1.2836918643414434,B,747,Correct
2,new_learn,12,70,C,66.59982037788443,44.848435921689045,3.3299910188942214,0.7044775840828544,C,2328,Correct
2,new_learn,12,71,D,61.91022143964279,20.25065225974043,3.0955110719821395,0.31809650184801036,D,1318,Correct
2,new_learn,12,72,C,77.62646307586155,61.68431033485311,3.881323153793078,0.9689348809486374,C,1125,Correct
2,new_learn,12,73,C,57.212151348411226,30.63579067603045,2.860607567420561,0.48122587462365973,B,975,Incorrect
2,new_learn,12,74,D,35.03557018473487,6.417835870927593,1.7517785092367435,0.10081113012025592,A,2558,Incorrect
2,new_learn,12,75,A,12.092109449239485,64.42736685395191,0.6046054724619743,1.0120227119925491,B,949,Incorrect
2,new_learn,12,76,A,7.478468497351528,67.41516217635586,0.3739234248675764,1.0589548911690205,C,1133,Incorrect
2,new_learn,12,77,C,50.809254466939095,45.55954989539769,2.5404627233469546,0.715647736261195,D,2411,Incorrect
2,new_learn,12,78,C,60.744581107437355,29.231704147235394,3.0372290553718675,0.45917053500432503,B,863,Incorrect
2,new_learn,12,79,D,51.57824351652112,33.625500745232486,2.578912175826056,0.5281881305725025,A,964,Incorrect
2,new_learn,12,80,A,46.81016413299629,41.47559244526281,2.340508206649815,0.65149708264661,B,743,Incorrect
2,new_learn,12,81,C,69.72286304794619,30.224405544347402,3.4861431523973097,0.4747638520862021,A,15703,Incorrect
2,new_learn,12,82,B,46.53842728172961,81.51190836865783,2.3269213640864805,1.280386062555299,A,1910,Incorrect
2,new_learn,12,83,B,28.21769247178037,73.4977279439501,1.4108846235890187,1.1544996108212744,B,854,Correct
2,new_learn,12,84,B,31.96412230240744,86.46229595421558,1.5982061151203721,1.3581465689113505,B,733,Correct
2,new_learn,12,85,C,98.73025295341301,40.0846984626811,4.936512647670651,0.629648971058605,C,1371,Correct
2,new_learn,12,86,C,62.28681294306968,49.852676540195894,3.1143406471534836,0.7830840119023382,C,990,Correct
2,new_learn,12,87,B,48.68212905865285,65.69691549620627,2.4341064529326424,1.0319647354319554,A,3214,Incorrect
2,new_learn,12,88,C,94.27517279405363,52.992923805403606,4.713758639702681,0.832410900596498,C,933,Correct
2,new_learn,12,89,D,31.08893508185497,33.024349057855936,1.5544467540927485,0.518745261948726,B,1100,Incorrect
2,new_learn,12,90,B,30.711330760863113,66.84168504674108,1.5355665380431558,1.0499467334820225,B,774,Correct
2,new_learn,12,91,C,52.428934672634895,48.83179901123031,2.621446733631745,0.7670481051762722,A,1414,Incorrect
2,new_learn,12,92,C,95.66136876415975,63.97940357849134,4.783068438207987,1.0049861213162246,C,1116,Correct
2,new_learn,12,93,B,59.5570926341244,98.4182939848366,2.97785463170622,1.545950946808016,A,1942,Incorrect
2,new_learn,12,94,B,45.5500043820125,91.01948806827544,2.277500219100625,1.4297307752439896,D,3821,Incorrect
2,new_learn,12,95,A,-1.7357432410675209,51.246406350567966,-0.08678716205337604,0.8049766685691082,B,1301,Incorrect
2,new_learn,12,96,D,63.822518044843406,13.047330370265588,3.19112590224217,0.20494698620092686,A,1196,Incorrect
2,new_learn,12,97,D,50.06864203968214,13.584369646585829,2.503432101984107,0.21338277942681105,B,1148,Incorrect
2,new_learn,12,98,A,0.19061314502134863,56.22157847832812,0.009530657251067432,0.8831264896036881,D,1193,Incorrect
2,new_learn,12,99,A,19.98996032907111,42.738838885515634,0.9994980164535555,0.6713401113284685,C,2203,Incorrect
2,new_learn,12,100,D,59.16120395166455,19.314278510077553,2.9580601975832277,0.3033879773832343,B,1356,Incorrect
2,new_learn,12,101,A,19.51116594440452,29.60017871415479,0.9755582972202261,0.4649585199666682,A,710,Correct
2,new_learn,12,102,B,72.11212532427004,64.25701267786275,3.6056062662135018,1.009346794851999,B,3879,Correct
2,new_learn,12,103,D,31.190451559339614,30.371009946011746,1.5595225779669806,0.4770667086424652,D,1557,Correct
2,new_learn,12,104,B,72.19674693798788,79.02542506114938,3.6098373468993943,1.241328474094588,A,2901,Incorrect
2,new_learn,12,105,B,45.6996764575478,78.79895509373729,2.28498382287739,1.2377710921651852,C,899,Incorrect
2,new_learn,12,106,D,42.736738532034174,2.9530916736761377,2.1368369266017084,0.0463870555369907,D,2470,Correct
2,new_learn,12,107,B,63.93239132882282,73.06231135228744,3.1966195664411408,1.1476601029931819,C,815,Incorrect
2,new_learn,12,108,C,77.09841009550793,68.70995924835093,3.8549205047753965,1.0792935160153667,C,660,Correct
2,new_learn,12,109,C,69.728677318977,41.90732642291424,3.4864338659488503,0.6582787441090839,D,5334,Incorrect
2,new_learn,12,110,B,36.132616073411825,83.84219945848312,1.8066308036705914,1.3169901893979035,D,1334,Incorrect
2,new_learn,12,111,D,37.683698940648966,26.314268847146973,1.8841849470324485,0.41334356847391845,D,735,Correct
2,new_learn,12,112,C,63.54078684115804,55.657183187810865,3.1770393420579017,0.8742609891116397,C,1821,Correct
2,new_learn,12,113,B,66.00451325415038,56.24271382210904,3.300225662707519,0.8834584828074543,C,805,Incorrect
2,new_learn,12,114,C,75.6175338560285,29.98410918237071,3.7808766928014252,0.4709892856588504,C,910,Correct
2,new_learn,12,115,A,28.672265825919986,61.682659806632756,1.4336132912959993,0.9689089545119794,D,853,Incorrect
2,new_learn,12,116,C,57.60321498891324,66.69164250566482,2.880160749445662,1.0475898707581666,D,1693,Incorrect
2,new_learn,12,117,B,60.515271279258876,54.19432576138251,3.025763563962944,0.8512824783910568,C,1414,Incorrect
2,new_learn,12,118,C,81.0141558221141,67.61395117716347,4.0507077911057054,1.0620774614917785,C,853,Correct
2,new_learn,12,119,C,48.51277591605692,48.57109556108965,2.4256387958028456,0.7629529849576354,B,814,Incorrect
2,new_learn,12,120,B,69.98150048153373,58.27608707957489,3.4990750240766864,0.9153986352457578,C,805,Incorrect
2,new_learn,12,121,B,58.752123456086444,56.63111493326233,2.937606172804322,0.8895594731946809,D,1127,Incorrect
2,new_learn,12,122,A,16.327882904091496,47.39708491704041,0.8163941452045748,0.7445116688847286,D,1021,Incorrect
2,new_learn,12,123,B,54.36153651825584,97.71075310139771,2.7180768259127923,1.534836920600386,D,2341,Incorrect
2,new_learn,12,124,C,90.05127268687838,66.90043353160354,4.502563634343919,1.0508695525242897,A,1815,Incorrect
2,new_learn,12,125,C,87.98278882513762,49.362151206061284,4.399139441256881,0.7753788579717534,C,892,Correct
2,new_learn,12,126,A,23.266631242774377,67.76813794919747,1.1633315621387188,1.0644994216432921,D,3415,Incorrect
2,new_learn,12,127,B,73.72462656831036,67.53106399794378,3.6862313284155177,1.0607754727252117,A,9128,Incorrect
2,new_learn,12,128,B,68.02520264641572,56.653838622287566,3.401260132320786,0.8899164160672016,D,907,Incorrect
2,new_learn,12,129,D,48.482130246025,44.01676308057365,2.42410651230125,0.691413697643663,B,3038,Incorrect
2,new_learn,12,130,B,72.02115061325227,77.17401521254372,3.601057530662614,1.2122465961987714,A,2469,Incorrect
2,new_learn,12,131,A,36.78292275295601,37.6898881035087,1.8391461376478007,0.5920313779030214,C,927,Incorrect
2,new_learn,12,132,B,64.06489781652975,69.84075019555365,3.203244890826488,1.0970559386777563,D,2396,Incorrect
2,new_learn,12,133,B,65.42626599387772,72.59558071827418,3.2713132996938863,1.140328715338075,C,21038,Incorrect
2,new_learn,12,134,B,71.1105502974707,89.13052115551481,3.5555275148735346,1.400058952363975,D,1990,Incorrect
2,new_learn,12,135,C,81.32536237193581,72.29780546777275,4.06626811859679,1.1356512726410941,C,933,Correct
2,new_learn,12,136,C,68.71613989751216,42.4617160939937,3.435806994875608,0.6669870766985305,B,1167,Incorrect
2,new_learn,12,137,D,61.251441379153164,28.499586951182962,3.062572068957658,0.44767046498089963,A,997,Incorrect
2,new_learn,12,138,A,23.68207380312743,50.223001966861844,1.1841036901563715,0.7889010701015944,D,868,Incorrect
2,new_learn,12,139,B,71.89680307825176,79.76096278837223,3.594840153912588,1.2528822736959953,C,661,Incorrect
2,new_learn,12,140,B,43.12415798505694,97.80685602557719,2.156207899252847,1.5363465018033395,D,983,Incorrect
2,new_learn,12,141,A,13.425338766638433,53.66561709794024,0.6712669383319216,0.8429775421262592,B,2532,Incorrect
2,new_learn,12,142,A,44.33201910106567,51.10633405847004,2.2166009550532833,0.8027764181499766,B,1238,Incorrect
2,new_learn,12,143,A,42.8278129726218,50.32296133065877,2.14139064863109,0.7904712281164042,B,384,Incorrect
2,new_learn,12,144,A,47.50626711993314,54.51575157535182,2.3753133559966573,0.8563314232702572,B,478,Incorrect
2,new_learn,12,145,B,69.25320778523067,86.08161943237138,3.4626603892615333,1.3521669160892515,B,629,Correct
2,new_learn,12,146,A,15.127132750536106,63.80856940655552,0.7563566375268053,1.0023026644185462,A,1078,Correct
2,new_learn,12,147,C,79.21987879863369,71.78500984936834,3.9609939399316842,1.1275962979032326,B,781,Incorrect
2,new_learn,12,148,C,58.902520511422935,71.21991729672524,2.945126025571147,1.1187198448433233,B,1060,Incorrect
2,new_learn,12,149,D,31.241637619089094,41.43179795142045,1.5620818809544548,0.6508091603459956,D,2839,Correct
2,new_learn,12,150,B,56.65599632665876,100.17645754070497,2.832799816332938,1.5735681153626428,A,5174,Incorrect
2,new_learn,12,151,C,58.065246297984274,70.56984840167381,2.903262314899214,1.1085085865182192,B,1380,Incorrect
2,new_learn,12,152,A,6.04453467471691,47.33398250977717,0.3022267337358455,0.7435204585893186,A,1702,Correct
2,new_learn,12,153,A,17.81943500994796,64.55728726693607,0.8909717504973981,1.0140634970674614,A,1653,Correct
2,new_learn,12,154,D,42.32483568275689,30.506121818663413,2.1162417841378445,0.4791890409751414,D,3087,Correct
2,new_learn,12,155,B,35.979446722998816,89.38396984850745,1.798972336149941,1.4040401151238129,A,1245,Incorrect
2,new_learn,12,156,A,10.906291418083521,40.80839049882333,0.545314570904176,0.6410166989796344,D,2364,Incorrect
2,new_learn,12,157,D,62.12862095949017,8.05401961283674,3.1064310479745085,0.12651224423778004,D,1208,Correct
2,new_learn,12,158,C,70.72408159563568,45.79458387546601,3.536204079781784,0.7193396413868283,B,2556,Incorrect
2,new_learn,12,159,D,56.37587265081,14.541512014101434,2.8187936325405003,0.22841753657794392,C,1047,Incorrect
2,new_learn,12,160,A,11.608162660878863,65.04960535154389,0.5804081330439431,1.0217968114566278,A,1451,Correct
2,new_learn,12,161,B,43.64556342489784,77.27269888638666,2.1822781712448918,1.2137967157226426,B,963,Correct
2,new_learn,12,162,B,66.3614469469353,65.50036982570205,3.318072347346765,1.0288774032592007,C,662,Incorrect
2,new_learn,12,163,D,24.03090672458208,26.89952898087328,1.201545336229104,0.4225368131566862,A,949,Incorrect
2,new_learn,12,164,B,30.664048201353552,92.25236159116406,1.5332024100676775,1.4490967072555512,A,1117,Incorrect
2,new_learn,12,165,B,72.79705115354145,73.41564584382695,3.6398525576770724,1.1532102682075838,C,847,Incorrect
2,new_learn,12,166,C,90.27070035880546,53.460581439352495,4.513535017940273,0.8397568495325434,C,759,Correct
2,new_learn,12,167,D,72.07225029751089,37.702721165103526,3.6036125148755445,0.5922329591631682,C,899,Incorrect
2,new_learn,12,168,B,60.59231627789709,70.50641349959758,3.0296158138948543,1.1075121534064998,C,696,Incorrect
2,new_learn,12,169,D,35.09142416494987,27.078504389150837,1.7545712082474936,0.42534815229577616,B,3476,Incorrect
2,new_learn,12,170,D,68.06978394158985,31.377017067726783,3.4034891970794923,0.4928690315576601,B,2244,Incorrect
2,new_learn,12,171,A,46.7957205110378,51.98494857325127,2.33978602555189,0.8165776626748469,D,6264,Incorrect
2,new_learn,12,172,D,76.58950781937993,24.85042646504171,3.8294753909689967,0.390349586105742,C,1059,Incorrect
2,new_learn,12,173,C,95.74097664798447,44.21027091114693,4.787048832399223,0.6944533115383685,C,864,Correct
2,new_learn,12,174,B,35.89352191761212,83.84049418321696,1.794676095880606,1.316963402996661,A,3204,Incorrect
2,new_learn,12,175,C,79.1995129677868,50.445134025477664,3.95997564838934,0.7923903123189657,D,2295,Incorrect
2,new_learn,12,176,C,89.41116484203799,46.397912660149245,4.470558242101899,0.7288167077751285,C,821,Correct
2,new_learn,12,177,A,35.35763859242137,30.673751918345356,1.7678819296210684,0.48182216842354797,B,2720,Incorrect
2,new_learn,12,178,C,81.99729745014096,75.85728565508012,4.099864872507048,1.1915634566763107,B,1484,Incorrect
2,new_learn,12,179,C,89.49955312041217,38.462657536906256,4.474977656020609,0.604170011777424,C,974,Correct
2,new_learn,12,180,B,38.00172749442762,98.29467548418165,1.900086374721381,1.544009151940489,A,3008,Incorrect
2,new_learn,12,181,B,52.81921316291849,73.65999118762069,2.640960658145924,1.1570484358925903,D,2012,Incorrect
2,new_learn,12,182,B,40.75594424403881,87.22929183337037,2.0377972122019403,1.3701945120077825,C,2029,Incorrect
2,new_learn,12,183,C,67.30598389265123,43.99248979792228,3.3652991946325614,0.6910324138113828,A,3597,Incorrect
2,new_learn,12,184,A,10.847799521026372,70.2879168873736,0.5423899760513187,1.1040800166475142,A,1555,Correct
2,new_learn,12,185,A,28.61109385030519,48.07360429979629,1.4305546925152595,0.7551384104991136,B,3649,Incorrect
2,new_learn,12,186,D,41.66469341986309,21.882320372522187,2.0832346709931544,0.3437266846290698,B,1381,Incorrect
2,new_learn,12,187,D,50.27624828998098,41.49953845744147,2.5138124144990486,0.651873225726326,D,2637,Correct
2,new_learn,12,188,B,59.14663647565208,67.19227924743788,2.957331823782604,1.0554538543085237,D,1102,Incorrect
2,new_learn,12,189,C,79.46438470990725,51.90002099674769,3.973219235495362,0.8152436234226927,D,974,Incorrect
2,new_learn,12,190,C,80.66324600023044,48.32865671096194,4.033162300011522,0.7591447644051054,D,428,Incorrect
2,new_learn,12,191,C,98.8622234272467,61.26914351461844,4.943111171362335,0.9624134557863201,D,455,Incorrect
2,new_learn,12,192,B,30.31455936097912,84.41282608727407,1.515727968048956,1.3259535715226654,D,1773,Incorrect
2,new_learn,12,193,A,29.445771669524774,34.525148644389056,1.472288583476239,0.5423197667265414,D,822,Incorrect
2,new_learn,12,194,A,6.465821351910982,67.53086812163136,0.3232910675955491,1.060772395907291,D,1588,Incorrect
2,new_learn,12,195,D,59.53506201166955,14.39949362184856,2.9767531005834775,0.22618671688906258,D,580,Correct
2,new_learn,12,196,C,71.96861853590642,27.47026656365056,3.598430926795321,0.4315019381425897,B,2550,Incorrect
2,new_learn,12,197,C,80.5506736709619,54.83150610247181,4.027533683548095,0.8612912837839468,C,2869,Correct
2,new_learn,12,198,B,58.596505141217534,60.00260862287515,2.929825257060877,0.9425187722292409,D,958,Incorrect
2,new_learn,12,199,B,68.41075796248333,59.88292049196654,3.4205378981241665,0.9406387154653187,B,1316,Correct
2,new_learn,12,200,C,76.56065563418461,49.49927802171369,3.828032781709231,0.7775328409550721,B,3814,Incorrect
2,new_learn,12,201,C,82.80929795460176,25.549479563632218,4.140464897730088,0.40133028650074765,C,1717,Correct
2,new_learn,12,202,B,41.72470029344903,73.87227313802727,2.0862350146724515,1.1603829529720255,A,2281,Incorrect
2,new_learn,12,203,D,44.52081079836353,3.0860851847009876,2.226040539918176,0.04847611272304461,D,4819,Correct
2,new_learn,12,204,B,36.473222213552646,65.04021810194943,1.8236611106776324,1.021649356884811,A,7903,Incorrect
2,new_learn,12,205,D,65.86857345909615,7.422154812765552,3.293428672954808,0.11658693516795192,B,2078,Incorrect
2,new_learn,12,206,D,72.55915636979925,14.49788221279005,3.627957818489963,0.22773220126155674,C,1510,Incorrect
2,new_learn,12,207,D,67.74370868154611,31.49357436923757,3.3871854340773053,0.49469990936840286,D,1332,Correct
2,new_learn,12,208,A,10.283238384670414,53.92184302980841,0.5141619192335206,0.8470023296523403,A,1614,Correct
2,new_learn,12,209,C,88.91429004458077,31.289588874421167,4.4457145022290385,0.49149571270863235,C,941,Correct
2,new_learn,12,210,D,53.23395943725041,32.123723028377434,2.661697971862521,0.504598261359519,B,5695,Incorrect
2,new_learn,12,211,B,50.557956542571105,99.43022273712087,2.5278978271285553,1.5618462864786788,D,1264,Incorrect
2,new_learn,12,212,B,52.453499122724445,81.15707415042259,2.622674956136222,1.2748123396890483,B,1829,Correct
2,new_learn,12,213,B,39.26879432810543,51.60740117709261,1.9634397164052715,0.810647162044077,C,3189,Incorrect
2,new_learn,12,214,D,61.286229689444646,19.83324577850979,3.064311484472232,0.3115398961730357,A,4270,Incorrect
2,new_learn,12,215,B,45.12358988308241,60.44219682454698,2.2561794941541207,0.9494238075541257,D,5444,Incorrect
2,new_learn,12,216,C,90.58850802950735,37.99526497623326,4.529425401475367,0.5968282266026599,C,903,Correct
2,new_learn,12,217,B,67.73052421103024,79.47870196032096,3.386526210551512,1.248448530976985,C,3142,Incorrect
2,new_learn,12,218,A,3.5662338422020667,34.836555197657745,0.17831169211010334,0.5472113294266845,A,781,Correct
2,new_learn,12,219,D,40.35213175666556,23.12098542596602,2.017606587833278,0.36318358978985765,A,3292,Incorrect
2,new_learn,12,220,D,34.23574892273953,36.687042078886485,1.7117874461369766,0.5762787093848469,A,1503,Incorrect
2,new_learn,12,221,A,33.85658504556879,72.4594924622729,1.6928292522784398,1.138191046011608,A,1524,Correct
2,new_learn,12,222,B,52.61033634780475,90.1573711617346,2.630516817390237,1.4161886745433685,B,3005,Correct
2,new_learn,12,223,D,32.56163813761425,17.298792153781765,1.6280819068807124,0.2717287917314878,A,2910,Incorrect
2,new_learn,12,224,B,38.68132574409228,70.81559010184696,1.934066287204614,1.1123686881179426,A,980,Incorrect
2,new_learn,12,225,A,31.745871485271806,70.53157290039428,1.5872935742635903,1.1079073563500579,A,709,Correct
2,new_learn,12,226,D,66.31110686873188,13.338017264552548,3.315555343436594,0.20951308525886053,D,7253,Correct
2,new_learn,12,227,A,21.857776907563036,74.94294609696597,1.0928888453781518,1.1772010444830208,A,855,Correct
2,new_learn,12,228,D,54.76648575467328,2.2404040214047356,2.738324287733664,0.03519218407359074,A,7189,Incorrect
2,new_learn,12,229,D,24.38165295548212,30.448449886969044,1.2190826477741061,0.4782831323904946,A,2109,Incorrect
2,new_learn,12,230,A,10.639020772524887,55.88613994047401,0.5319510386262444,0.8778574333724213,A,3688,Correct
2,new_learn,12,231,A,28.7333319145621,38.90623372930676,1.4366665957281048,0.6111376903141877,A,2636,Correct
2,new_learn,12,232,D,60.05256808130177,22.018545446064817,3.0026284040650886,0.3458665030804511,A,2751,Incorrect
2,new_learn,12,233,C,86.77648547323088,28.5710085678819,4.338824273661544,0.44879235311254406,C,1989,Correct
2,new_learn,12,234,D,52.731691546933654,33.12621521208891,2.636584577346683,0.5203453717576648,C,1668,Incorrect
2,new_learn,12,235,A,31.56016859059578,46.41263585724928,1.578008429529789,0.7290479792143627,B,2237,Incorrect
2,new_learn,12,236,A,43.96795359309787,32.058639365376735,2.198397679654893,0.5035759295717605,A,1156,Correct
2,new_learn,12,237,A,30.10117930703648,65.21938558779289,1.5050589653518243,1.0244637131712508,A,7877,Correct
2,new_learn,12,238,A,35.23955148022435,40.39969164100272,1.7619775740112176,0.6345968723333356,A,2422,Correct
2,new_learn,12,239,B,52.59772658974225,88.27440805476797,2.6298863294871127,1.3866111592242336,B,14478,Correct
2,new_learn,12,240,B,71.96274559808307,66.42762081051387,3.5981372799041536,1.0434426276687943,C,1156,Incorrect
2,new_learn,12,241,C,78.61945204757339,28.592780340021836,3.9309726023786697,0.4491343433095964,C,1013,Correct
2,new_learn,12,242,D,49.61580886054635,47.319900058524006,2.4807904430273173,0.7432992519623112,D,1279,Correct
2,new_learn,12,243,A,31.509692863775722,37.858480261626724,1.5754846431887861,0.5946796173300035,D,1237,Incorrect
2,new_learn,12,244,A,35.31368404001078,41.21672244673275,1.7656842020005388,0.6474307622185257,A,2364,Correct
2,new_learn,12,245,C,98.23103908391042,50.93313662078536,4.911551954195521,0.8000558391607229,C,1231,Correct
2,new_learn,12,246,A,14.343341949608286,63.3402194336648,0.7171670974804143,0.994945840247834,A,1013,Correct
2,new_learn,12,247,D,66.20232163221607,29.66925776815105,3.3101160816108033,0.4660436112094262,D,2188,Correct
2,new_learn,12,248,C,85.51634160287483,43.52109815824829,4.275817080143741,0.6836278112505655,C,736,Correct
2,new_learn,12,249,B,41.717062458173075,58.527489553718894,2.0858531229086537,0.9193476560750832,D,1815,Incorrect
2,new_learn,12,250,A,22.243122243794783,67.1839976760867,1.1121561121897392,1.0553237676899385,A,1100,Correct
2,new_learn,12,251,C,95.03936200343011,56.39305583224437,4.751968100171506,0.8858200495802897,C,903,Correct
2,new_learn,12,252,B,59.66989551905195,96.77446005925765,2.983494775952597,1.5201296638864132,D,2067,Incorrect
2,new_learn,12,253,D,55.35382867613136,9.201056400951735,2.7676914338065677,0.14452985597247658,D,1215,Correct
2,new_learn,12,254,B,54.34572414364965,64.91507536755276,2.7172862071824824,1.0196836194096572,B,694,Correct
2,new_learn,12,255,D,58.734542936600135,38.179096104063476,2.9367271468300067,0.5997158392061226,B,2077,Incorrect
2,new_learn,12,256,C,81.71514885121988,25.888358857059945,4.085757442560993,0.4066533899941788,C,814,Correct
2,new_learn,12,257,B,74.1461217204115,79.03002510202617,3.7073060860205747,1.2414007313677116,C,1386,Incorrect
2,new_learn,12,258,C,92.36218732892891,35.34528716248509,4.618109366446446,0.5552024724434239,C,744,Correct
2,new_learn,12,259,B,44.11720353611523,57.16842498043613,2.2058601768057615,0.8979995196791868,C,678,Incorrect
2,new_learn,12,260,A,37.01331306212622,34.414170655149256,1.8506656531063113,0.5405765285480117,A,1270,Correct
2,new_learn,12,261,A,24.38208591453976,75.75804480947639,1.219104295726988,1.190004585118887,A,933,Correct
2,new_learn,12,262,A,43.95616958786353,50.35950970701427,2.1978084793931765,0.7910453286696995,C,2012,Incorrect
2,new_learn,12,263,A,26.531388018568506,33.37141305383778,1.3265694009284255,0.5241969304492364,A,742,Correct
2,new_learn,12,264,B,41.44804986513276,99.91122999647217,2.072402493256638,1.5694019308401856,C,1101,Incorrect
2,new_learn,12,265,B,71.21742543639576,90.39485910947008,3.5608712718197877,1.4199191265029778,B,1708,Correct
2,new_learn,12,266,A,18.038877479321947,67.47003980912118,0.9019438739660973,1.0598169070087298,A,655,Correct
2,new_learn,12,267,C,69.11147411164302,43.11150698704844,3.455573705582151,0.6771939681784821,D,4468,Incorrect
2,new_learn,12,268,A,42.01727871433259,69.1624267989445,2.1008639357166294,1.0864008596800294,A,766,Correct
2,new_learn,12,269,A,27.302676399615585,24.799117761961085,1.3651338199807794,0.3895436308824254,A,981,Correct
2,new_learn,12,270,C,65.64414062048954,51.30118506812476,3.2822070310244773,0.8058371306523556,A,1190,Incorrect
2,new_learn,12,271,C,84.82831004618677,56.23738115311216,4.241415502309338,0.8833747174387314,C,830,Correct
2,new_learn,12,272,C,70.16329249961052,53.7439971504601,3.508164624980526,0.844208733112181,C,862,Correct
2,new_learn,12,273,D,51.521224346203326,36.20051306331359,2.5760612173101665,0.5686363294794367,D,2254,Correct
2,new_learn,12,274,A,30.030330530027157,37.86043849835019,1.501516526501358,0.5947103772405258,A,685,Correct
2,new_learn,12,275,A,28.113584427529187,41.072061872515995,1.4056792213764593,0.6451584392324085,A,726,Correct
2,new_learn,12,276,D,61.41951415551564,42.6838129543345,3.0709757077757818,0.6704757660226905,A,2575,Incorrect
2,new_learn,12,277,C,71.44998082197502,38.73031018532718,3.572499041098751,0.608374289747389,C,627,Correct
2,new_learn,12,278,A,22.95229948447599,37.69783006901121,1.1476149742237995,0.5921561300054101,A,583,Correct
2,new_learn,12,279,C,77.93190517563686,32.42299878722859,3.896595258781843,0.5092992739865405,C,1083,Correct
2,new_learn,12,280,B,34.244085448834284,80.92959748141448,1.7122042724417141,1.2712391445279536,A,1135,Incorrect
2,new_learn,12,281,A,45.57971454259413,59.02751832763887,2.2789857271297067,0.9272020896887356,A,935,Correct
2,new_learn,12,282,A,29.354292038828845,32.80774038621472,1.4677146019414422,0.5153427808910667,A,1051,Correct
2,new_learn,12,283,C,77.36199218924038,25.894623949788723,3.868099609462019,0.4067518018406328,C,662,Correct
2,new_learn,12,284,D,56.480777424322895,48.53614447194249,2.824038871216145,0.7624039745331369,D,3868,Correct
2,new_learn,12,285,D,66.29255622840542,9.338369509854118,3.314627811420271,0.1466867652433231,D,1431,Correct
2,new_learn,12,286,C,67.66104580840192,50.85229754882805,3.383052290420096,0.7987860219878022,C,1029,Correct
2,new_learn,12,287,C,86.89547739651239,58.634922230707986,4.3447738698256195,0.9210352046190053,C,797,Correct
2,new_learn,12,288,B,32.14656330456252,57.44365214886383,1.607328165228126,0.9023227779311906,A,499,Incorrect
2,new_learn,12,289,D,68.32476544478695,18.4446404863992,3.416238272239348,0.289727735250883,B,1919,Incorrect
2,new_learn,12,290,B,62.84740153226527,92.32829447193268,3.1423700766132634,1.450289458157494,B,2964,Correct
2,new_learn,12,291,D,27.23884346475668,21.43944254062997,1.3619421732378338,0.336769975913518,A,615,Incorrect
2,new_learn,12,292,D,27.58941453576301,28.066864949642536,1.3794707267881503,0.44087328367546924,D,941,Correct
2,new_learn,12,293,D,52.87593309082678,39.303162385848765,2.643796654541339,0.6173726310711459,B,4117,Incorrect
2,new_learn,12,294,B,33.85894567499959,62.488842662530004,1.6929472837499793,0.9815724451996636,A,862,Incorrect
2,new_learn,12,295,B,30.803748513448166,85.91507180144144,1.5401874256724082,1.34955079202024,A,614,Incorrect
2,new_learn,12,296,B,55.09909888193164,58.89921437786485,2.754954944096582,0.9251866959585527,A,2054,Incorrect
2,new_learn,12,297,C,68.33442552284728,49.616489358769776,3.416721276142364,0.7793739923321366,C,775,Correct
2,new_learn,12,298,B,44.62166822026744,56.077502931282254,2.231083411013372,0.8808633562028821,C,1188,Incorrect
2,new_learn,12,299,C,86.53119344088724,37.14582280162543,4.326559672044362,0.5834852201256734,C,741,Correct
2,new_learn,12,300,B,44.54057488308998,80.17242012056218,2.227028744154499,1.2593454303563634,B,1239,Correct
2,new_learn,12,301,C,56.69802272225833,38.11447956692385,2.8349011361129164,0.5987008450142313,D,2490,Incorrect
2,new_learn,12,302,C,81.58169699083115,71.53504488727697,4.079084849541557,1.123669857460427,C,758,Correct
2,new_learn,12,303,D,44.658968332959745,6.641395915120569,2.232948416647987,0.1043228030826202,D,1700,Correct
2,new_learn,12,304,A,8.155764686889299,61.50517380907304,0.40778823434446493,0.966121010981736,A,813,Incorrect
2,new_learn,12,305,B,43.78044862202559,79.24506991497049,2.189022431101279,1.244778647390404,B,2096,Incorrect
2,new_learn,12,306,C,97.07473149817909,44.19506956166279,4.853736574908954,0.6942145292990485,C,682,Correct
2,new_learn,12,307,A,29.705463699487716,43.72733176928618,1.4852731849743859,0.6868673212373652,A,902,Incorrect
2,new_learn,12,308,C,68.55387871405611,62.003777456469834,3.4276939357028056,0.9739530587603104,D,2592,Incorrect
2,new_learn,12,309,A,13.355078938620414,37.24369052163706,0.6677539469310207,0.5850225226767339,A,813,Incorrect
2,new_learn,12,310,A,23.745761497335106,60.04162950768806,1.1872880748667554,0.9431317108545648,A,855,Incorrect
2,new_learn,12,311,C,69.75604077104572,60.824250358293334,3.487802038552286,0.9554250904286035,A,1243,Incorrect
2,new_learn,12,312,C,82.22895379038951,68.22077080028367,4.111447689519475,1.0716093618420213,C,1249,Incorrect
2,new_learn,12,313,D,40.595245523818605,25.18666084981942,2.0297622761909304,0.3956311434712518,A,1156,Incorrect
2,new_learn,12,314,A,36.22533845804876,60.26581698453611,1.8112669229024378,0.9466532395060281,D,1052,Correct
2,new_learn,12,315,C,75.85573165539654,24.931242870321675,3.792786582769827,0.39161904723132734,C,2118,Correct
2,new_learn,12,316,A,28.760343219487545,47.09243440034106,1.4380171609743773,0.7397262297588537,D,1398,Incorrect
2,new_learn,12,317,C,87.76447197479895,49.945544707897454,4.388223598739947,0.7845427816693561,C,860,Correct
2,new_learn,12,318,C,82.11850053376668,68.19634350798152,4.105925026688334,1.0712256588318037,C,2646,Correct
2,new_learn,12,319,B,65.30853530112876,58.56667447119891,3.265426765056438,0.9199631713195168,C,2606,Incorrect
2,new_learn,12,320,B,29.83216229190324,80.57338439217325,1.491608114595162,1.26564376240659,A,2277,Correct
2,new_learn,12,321,C,87.91258782490789,36.88689888163675,4.395629391245394,0.5794180527012979,C,1031,Incorrect
2,new_learn,12,322,B,58.67810805032414,76.01714243636336,2.933905402516207,1.19407448112484,B,1092,Correct
2,new_learn,12,323,B,76.61973608218122,74.6638384456724,3.8309868041090613,1.1728168317486978,B,976,Correct
2,new_learn,12,324,A,2.22298999975251,60.62172038094044,0.11114949998762551,0.9522437569836855,A,986,Correct
2,new_learn,12,325,D,57.23119323754,23.931709878753466,2.8615596618769996,0.3759184197146709,D,1503,Correct
2,new_learn,12,326,D,49.34252740963445,31.379052815167302,2.4671263704817226,0.49290100900367856,D,732,Correct
2,new_learn,12,327,A,45.72993933806666,66.84724196044212,2.286496966903333,1.0500340212783217,D,2646,Correct
2,new_learn,12,328,D,46.85212065764575,49.04603175073804,2.3426060328822875,0.7704132651792517,D,734,Correct
2,new_learn,12,329,D,58.82143402200926,39.34494615454138,2.941071701100463,0.618028968974966,D,1095,Incorrect
2,new_learn,12,330,D,51.94659049974739,42.507241068331396,2.5973295249873694,0.6677021813232014,D,2262,Incorrect
2,new_learn,12,331,D,52.24296482163474,10.463972507727867,2.612148241081737,0.16436769578821717,D,1910,Incorrect
2,new_learn,12,332,A,12.620850921758356,35.4734925307375,0.6310425460879178,0.5572163176586867,A,643,Correct
2,new_learn,12,333,B,34.25046700015517,83.51828143542497,1.7125233500077583,1.3119020969898796,B,3183,Correct
2,new_learn,12,334,C,66.7173031143485,39.79196778547917,3.335865155717425,0.6250507683337154,B,1775,Correct
2,new_learn,12,335,B,41.5449390397624,64.64820241910896,2.07724695198812,1.015491588938293,B,1012,Correct
2,new_learn,12,336,D,71.60847542643954,32.50481565666706,3.580423771321977,0.5105844503663787,B,1999,Incorrect
2,new_learn,12,337,A,11.593484104375756,65.94791010296478,0.5796742052187878,1.0359073494953712,A,885,Incorrect
2,new_learn,12,338,D,73.38635323803564,21.377558365487893,3.669317661901782,0.33579790156351896,B,1145,Incorrect
2,new_learn,12,339,D,68.45146675677123,32.257381941871515,3.422573337838561,0.5066977706631179,D,5136,Incorrect
2,new_learn,12,340,C,71.08577662799868,43.932009492965626,3.5542888313999343,0.6900823914026893,C,1666,Incorrect
2,new_learn,12,341,A,20.43959775195423,74.3960472191903,1.0219798875977117,1.168610376999638,A,751,Correct
2,new_learn,12,342,D,41.20712018420538,47.489095957030614,2.060356009210269,0.7459569749211407,D,1614,Incorrect
2,new_learn,12,343,A,10.656698145624883,63.741634003357376,0.5328349072812442,1.0012512455637843,A,821,Incorrect
2,new_learn,12,344,B,71.99112865081577,78.74028631424552,3.5995564325407883,1.2368495251319533,A,798,Correct
2,new_learn,12,345,C,100.26318612640839,55.43687703949161,5.01315930632042,0.8708004282261376,A,3167,Correct
2,new_learn,12,346,B,44.48598100834227,75.34953491791036,2.2242990504171134,1.1835877267475738,B,1050,Incorrect
2,new_learn,12,347,B,27.382576670811364,62.03229124649163,1.3691288335405682,0.9744009523266026,D,2150,Incorrect
2,new_learn,12,348,D,30.835119318540944,41.961364345056914,1.5417559659270472,0.6591275698051773,B,981,Incorrect
2,new_learn,12,349,D,58.20364941238232,50.04794817811208,2.910182470619116,0.786151331617998,A,12607,Correct
2,new_learn,12,350,C,53.720515652227746,43.86044234886615,2.686025782611387,0.6889582173319828,A,813,Incorrect
2,new_learn,12,351,B,37.60754960822447,91.11915438587927,1.8803774804112234,1.4312963300999624,D,2996,Incorrect
2,new_learn,12,352,C,73.39151984794692,62.30032557378795,3.6695759923973466,0.9786112256943228,C,2151,Incorrect
2,new_learn,12,353,B,44.08964024957333,58.085365333126006,2.2044820124786666,0.9124027850581394,B,916,Correct
2,new_learn,12,354,C,80.57914500780261,73.15519335308531,4.02895725039013,1.1491190900499682,B,1694,Incorrect
2,new_learn,12,355,A,4.230719287273196,47.33618181846076,0.2115359643636598,0.7435550052493355,A,1508,Incorrect
2,new_learn,12,356,D,28.882402124945298,33.56969380116076,1.4441201062472648,0.5273115171449274,A,1454,Correct
2,new_learn,12,357,A,23.79225440716515,43.632431205721886,1.1896127203582574,0.6853766266707897,D,1687,Incorrect
2,new_learn,12,358,C,55.86836517498054,34.550926965777194,2.793418258749027,0.5427246916520155,B,1965,Incorrect
2,new_learn,12,359,A,34.44697026738865,46.89394800645227,1.7223485133694325,0.7366084127744609,A,653,Incorrect
2,new_learn,12,360,C,78.92338350237053,34.81918674711209,3.9461691751185266,0.5469385064434923,B,831,Incorrect
2,new_learn,12,361,B,51.30720142160164,63.74802331775587,2.5653600710800823,1.0013516086796634,B,884,Incorrect
2,new_learn,12,362,B,41.235490536522306,54.804312075123136,2.0617745268261154,0.8608641210012462,D,4087,Incorrect
2,new_learn,12,363,C,58.88160827199691,56.585448109135136,2.9440804135998455,0.8888421403987271,B,783,Correct
2,new_learn,12,364,C,71.32842894844505,47.24519468938892,3.566421447422252,0.7421257827680188,C,974,Incorrect
2,new_learn,12,365,B,75.68878700580817,70.97601563672697,3.7844393502904086,1.1148886465270786,B,924,Correct
2,new_learn,12,366,D,37.74586322381495,46.23063740868426,1.8872931611907475,0.7261891542694798,A,1127,Incorrect
2,new_learn,12,367,C,87.27871769596281,52.34012029835391,4.363935884798141,0.8221566870865732,C,813,Incorrect
2,new_learn,12,368,B,44.165124053838845,54.03789583286371,2.2082562026919423,0.8488252828198757,B,918,Incorrect
2,new_learn,12,369,C,68.37250391688856,40.88155334124584,3.418625195844428,0.6421659382209859,C,670,Incorrect
2,new_learn,12,370,D,47.35537368629797,29.511056045403375,2.367768684314899,0.4635585843595794,D,1605,Correct
2,new_learn,12,371,B,63.832372887042276,94.63092532954451,3.191618644352114,1.4864590990885065,D,3261,Incorrect
2,new_learn,12,372,D,52.82805021180093,47.65985558028915,2.6414025105900465,0.7486392608109346,C,934,Incorrect
2,new_learn,12,373,C,94.35421917764609,46.12418284342021,4.7177109588823045,0.7245169698686064,C,757,Incorrect
2,new_learn,12,374,C,75.61799433392984,49.30299086909459,3.780899716696492,0.7744495695717609,C,2054,Correct
2,new_learn,12,375,A,18.968802214928626,28.383803177850123,0.9484401107464313,0.4458517377223628,D,5837,Correct
2,new_learn,12,376,C,84.18220159426137,69.59882219366925,4.209110079713068,1.0932557425106677,C,3771,Incorrect
2,new_learn,12,377,A,3.06983635015888,37.721811590991535,0.153491817507944,0.5925328308717865,A,1701,Incorrect
2,new_learn,12,378,A,26.65234385113195,31.67843908985706,1.3326171925565975,0.4976037576094334,D,8206,Incorrect
2,new_learn,12,379,D,40.646655608296335,42.815606702243,2.0323327804148166,0.6725459773737826,D,7308,Incorrect
2,new_learn,12,380,A,6.24865626582357,63.53081380175405,0.3124328132911785,0.9979396895808579,A,1719,Correct
2,new_learn,12,381,D,50.21524624247602,18.701111026867302,2.5107623121238007,0.2937563650798669,B,4037,Correct
2,new_learn,12,382,C,81.78736826542585,34.34071898001363,4.089368413271293,0.539422752333012,C,1277,Correct
2,new_learn,12,383,B,26.682544681545803,63.58228363632578,1.33412723407729,0.998748175851718,D,822,Incorrect
2,new_learn,12,384,D,50.88400167085382,-1.7637436456893099,2.544200083542691,-0.027704820400566075,D,6174,Incorrect
2,new_learn,12,385,A,21.73856793316989,65.607914525185,1.0869283966584944,1.0305667114483414,B,2293,Correct
2,new_learn,12,386,C,93.1643561296579,60.47780757720406,4.658217806482895,0.949983179948807,C,1093,Incorrect
2,new_learn,12,387,D,28.866509556755947,29.36701153409328,1.4433254778377975,0.46129593846697076,A,879,Correct
2,new_learn,12,388,A,23.992993443597552,64.9862857905863,1.1996496721798777,1.0208021901189634,A,933,Incorrect
2,new_learn,12,389,A,48.6089159777849,54.60196173298498,2.430445798889245,0.8576856092596832,D,912,Incorrect
2,new_learn,12,390,D,59.0856017062917,11.893699812896749,2.954280085314585,0.18682579978099362,B,1341,Incorrect
2,new_learn,12,391,C,81.79731765697284,30.529731287084562,4.089865882848642,0.4795598976378766,C,2147,Incorrect
2,new_learn,12,392,D,43.92216099046148,10.894623722850628,2.196108049523074,0.17113234925666307,D,2312,Correct
2,new_learn,12,393,D,47.50315420558645,4.610426421088118,2.375157710279322,0.07242040887203356,D,1164,Incorrect
2,new_learn,12,394,A,28.5720177548009,32.474646381558586,1.4286008877400451,0.510110552501154,D,1647,Incorrect
2,new_learn,12,395,A,10.259692437107836,69.46905733478613,0.5129846218553918,1.091217400873861,D,987,Incorrect
2,new_learn,12,396,C,58.277696682962684,63.13524274772368,2.9138848341481345,0.991726073994285,A,1853,Incorrect
2,new_learn,12,397,D,45.45377931441033,45.236050506417214,2.2726889657205165,0.7105662197418858,B,598,Correct
2,new_learn,12,398,D,37.475104175758766,31.49591697259721,1.873755208787938,0.49473670689592736,B,1639,Incorrect
2,new_learn,12,399,C,64.7110538086797,48.897862954127135,3.235552690433985,0.7680858351646314,B,2077,Incorrect
2,new_learn,12,400,D,64.16341440347269,27.98714549289042,3.2081707201736345,0.43962105337706614,B,1238,Correct
2,new_learn,12,401,D,62.429700774176325,13.134638162699135,3.1214850387088164,0.20631841379747867,D,1710,Correct
2,new_learn,12,402,A,38.5083440693738,48.34463868812253,1.92541720346869,0.7593958087152932,B,2459,Incorrect
2,new_learn,12,403,D,45.24674793050093,6.624462313839182,2.2623373965250466,0.10405681069569807,D,909,Incorrect
2,new_learn,12,404,B,70.70642328732276,58.64238479903948,3.535321164366138,0.9211524263682409,B,3071,Correct
2,new_learn,12,405,D,29.28119231030119,39.24882560624414,1.4640596155150596,0.6165191109330178,B,2766,Incorrect
2,new_learn,12,406,C,53.65818498137858,63.915084490758844,2.682909249068929,1.0039757994486946,B,1485,Incorrect
2,new_learn,12,407,C,48.796466387582306,54.023824890464695,2.4398233193791152,0.8486042569735266,B,299,Incorrect
2,new_learn,12,408,B,74.84428376236635,66.62473634518336,3.742214188118317,1.0465389112469248,B,640,Correct
2,new_learn,12,409,D,49.412372784799075,47.362387428920506,2.4706186392399534,0.7439666420158512,D,1964,Correct
2,new_learn,12,410,B,75.07333549842052,74.51150272130177,3.753666774921026,1.1704239477858875,C,822,Incorrect
2,new_learn,12,411,A,23.37504406017481,26.14959915260945,1.1687522030087407,0.4107569429607787,D,1045,Correct
2,new_learn,12,412,A,4.377803353904575,37.52979429724842,0.21889016769522876,0.5895166302748588,A,1727,Correct
2,new_learn,12,413,A,24.83827654582122,72.25269978841749,1.241913827291061,1.1349427542866057,B,2675,Incorrect
2,new_learn,12,414,B,45.03379171578101,73.26813201172209,2.2516895857890504,1.1508931263513664,B,1199,Incorrect
2,new_learn,12,415,A,12.417556857998092,57.110840552168895,0.6208778428999046,0.8970949855951591,A,806,Incorrect
2,new_learn,12,416,D,46.08375790104719,2.5130268885303018,2.3041878950523595,0.03947453405640206,D,935,Correct
2,new_learn,12,417,B,40.64680036460141,97.02468190366618,2.0323400182300704,1.5240601394272206,A,13724,Incorrect
2,new_learn,12,418,A,31.237682402011174,24.39066731631821,1.5618841201005587,0.38312770628548976,A,6911,Correct
2,new_learn,12,419,D,54.86236948564626,12.247258343035282,2.7431184742823134,0.19237948418547973,D,4653,Incorrect
2,new_learn,12,420,B,51.655146764238886,99.88319518416904,2.582757338211944,1.5689615610383043,B,3140,Correct
2,new_learn,12,421,A,47.520167156159104,40.36116358061599,2.3760083578079554,0.6339916749759955,C,16062,Incorrect
2,new_learn,12,422,A,28.607728426973033,60.288514713643316,1.4303864213486517,0.94700977460111,B,1351,Incorrect
2,new_learn,12,423,B,39.565736859469865,51.27134947916167,1.9782868429734932,0.8053684743168459,B,677,Correct
2,new_learn,12,424,D,52.71622054426714,26.393691385062578,2.635811027213357,0.41459113478214404,C,1534,Incorrect
2,new_learn,12,425,D,52.70411666934992,6.14451908673324,2.6352058334674964,0.09651788011361706,D,807,Correct
2,new_learn,12,426,C,82.60732841132904,46.14653556643358,4.130366420566451,0.7248680856206391,C,876,Correct
2,new_learn,12,427,D,39.75578270768297,48.754038326735184,1.9877891353841484,0.7658266432005323,A,1329,Incorrect
2,new_learn,12,428,D,37.75075063638465,34.5198590146357,1.8875375318192327,0.5422366774166745,B,22387,Incorrect
2,new_learn,12,429,B,44.388732286517126,84.509651509952,2.2194366143258564,1.3274745017054936,B,1317,Incorrect
2,new_learn,12,430,A,37.66317166090123,64.74200088914432,1.8831585830450615,1.0169649718601983,C,792,Incorrect
2,new_learn,12,431,C,61.820479938871884,45.70552930343508,3.091023996943594,0.7179407754405233,B,603,Incorrect
2,new_learn,12,432,A,32.70663533249686,44.75216576971363,1.635331766624843,0.7029653760718247,B,743,Incorrect
2,new_learn,12,433,A,46.74835077776882,51.45851255915727,2.337417538888441,0.808308425102533,B,398,Correct
2,new_learn,12,434,D,39.60625536750989,10.302549338725445,1.9803127683754946,0.1618320665789312,A,2479,Incorrect
2,new_learn,12,435,B,55.80213420364058,92.20358104451967,2.7901067101820285,1.4483304642206707,C,1261,Incorrect
2,new_learn,12,436,D,67.85191017618125,19.656875393192788,3.3925955088090625,0.3087694766389222,B,1464,Correct
2,new_learn,12,437,D,61.21089486554313,24.788271386060938,3.0605447432771564,0.38937325640819564,B,795,Incorrect
2,new_learn,12,438,C,82.81522181555347,40.44722527050191,4.140761090777674,0.6353435288395012,C,1222,Correct
2,new_learn,12,439,A,27.00907932509207,69.76981093798963,1.3504539662546033,1.095941627425685,A,933,Correct
2,new_learn,12,440,A,28.817483417887495,63.13203076320349,1.4408741708943749,0.9916756202594245,A,742,Correct
2,new_learn,12,441,D,46.86326457822054,16.76142518792774,2.3431632289110267,0.2632878511704435,B,6454,Incorrect
2,new_learn,12,442,B,58.089507365067476,94.22928004614705,2.9044753682533737,1.4801500697301542,B,4187,Correct
2,new_learn,12,443,B,27.199801862980504,88.81812690298442,1.3599900931490252,1.395151874920109,A,934,Correct
2,new_learn,12,444,D,60.68305714214174,40.90246213482159,3.034152857107087,0.6424943727824509,B,5246,Incorrect
2,new_learn,12,445,A,1.9613217206290585,36.30131834413872,0.09806608603145292,0.5702197751278529,A,805,Incorrect
2,new_learn,12,446,B,49.202879024106224,53.84399284006709,2.460143951205311,0.845779461731481,A,1038,Incorrect
2,new_learn,12,447,D,41.817204579828484,24.20862219895952,2.090860228991424,0.38026814826891003,B,1302,Incorrect
2,new_learn,12,448,A,1.7257225018087503,43.26197474804058,0.08628612509043751,0.6795575102411572,A,853,Correct
2,new_learn,12,449,B,27.63076155182615,85.89482515217034,1.3815380775913075,1.3492327583971908,A,1629,Correct
2,new_learn,12,450,C,69.7027372572791,46.32103195464635,3.4851368628639547,0.7276090684770752,C,878,Correct
2,new_learn,12,451,A,36.822119557103825,71.68486123518316,1.8411059778551913,1.1260231671502758,D,1543,Incorrect
2,new_learn,12,452,A,41.91412895102634,68.56263387340091,2.0957064475513167,1.076979334437215,B,1884,Incorrect
2,new_learn,12,453,A,1.1276629852039548,46.14592288519297,0.05638314926019774,0.7248584616462166,D,1056,Incorrect
2,new_learn,12,454,B,32.864129075676686,79.95851155827376,1.6432064537838342,1.2559853625172368,A,916,Incorrect
2,new_learn,12,455,D,57.04710136142444,28.424506327722995,2.8523550680712217,0.4464911013054558,B,1200,Incorrect
2,new_learn,12,456,A,30.260691040314185,42.86717246415712,1.5130345520157094,0.6733559704678135,B,3380,Incorrect
2,new_learn,12,457,A,15.313259269281144,50.08697383478684,0.7656629634640573,0.7867643451995525,A,998,Correct
2,new_learn,12,458,B,61.799452062021516,96.45714766788836,3.0899726031010757,1.5151453324983195,C,1044,Correct
2,new_learn,12,459,D,53.10952031943565,48.69471467386171,2.6554760159717823,0.7648947894402752,B,1684,Incorrect
2,new_learn,12,460,C,72.26343797960305,72.61686732491938,3.613171898980153,1.1406630845733572,C,992,Correct
2,new_learn,12,461,A,32.71362886076034,26.128755573224286,1.6356814430380169,0.4104295327814239,D,1850,Incorrect
2,new_learn,12,462,C,92.54574918243955,33.910428020765075,4.627287459121977,0.5326637577506051,C,3125,Incorrect
2,new_learn,12,463,A,26.54114639653416,56.677855914183795,1.327057319826708,0.8902936788061031,C,816,Incorrect
2,new_learn,12,464,B,46.38966438126789,56.08189362766326,2.3194832190633945,0.8809323251003556,C,211,Incorrect
2,new_learn,12,465,D,34.212746840385634,39.57812322249221,1.7106373420192817,0.6216917057932656,C,295,Incorrect
2,new_learn,12,466,B,31.913277676532577,77.14209143545027,1.5956638838266288,1.2117451386808133,C,309,Incorrect
2,new_learn,12,467,D,41.88723622798727,7.735857742347811,2.094361811399364,0.12151456926287803,C,271,Incorrect
2,new_learn,12,468,D,74.93503837055704,30.597624189284268,3.7467519185278517,0.48062635685178395,C,307,Incorrect
2,new_learn,12,469,A,25.431671136912545,26.573394935067206,1.2715835568456273,0.4174139115447367,D,3823,Correct
2,new_learn,12,470,D,37.59817779838267,24.55840369293216,1.8799088899191334,0.38576250312804056,D,998,Incorrect
2,new_learn,12,471,B,68.26542678065734,61.26942269203098,3.4132713390328666,0.9624178410948616,C,655,Incorrect
2,new_learn,12,472,D,48.61485716957175,2.6093175452844015,2.4307428584785873,0.04098706415574213,D,1060,Correct
2,new_learn,12,473,A,4.391798826156805,62.36871524689251,0.21958994130784024,0.9796854881673563,A,2164,Incorrect
2,new_learn,12,474,D,58.88411755382303,17.37682849593137,2.944205877691152,0.27295458372753884,B,2672,Incorrect
2,new_learn,12,475,D,48.974246898249355,16.145789255357897,2.448712344912468,0.2536174645552069,D,1421,Correct
2,new_learn,12,476,A,21.109965715983186,53.68325508242541,1.0554982857991593,0.8432545989386729,A,2948,Correct
2,new_learn,12,477,B,59.32847476145915,89.37599826125212,2.9664237380729572,1.403914897724019,D,3088,Incorrect
2,new_learn,12,478,C,84.29485799070092,66.72860761305273,4.214742899535046,1.048170517307212,C,780,Incorrect
2,new_learn,12,479,A,21.25386346217185,35.012701213096214,1.0626931731085925,0.5499782245669875,A,1440,Correct
2,new_learn,12,480,A,26.201145847682483,35.413855263881565,1.310057292384124,0.5562795376615127,A,3037,Incorrect
2,new_learn,12,481,C,91.50523219577182,65.59399572331341,4.575261609788591,1.0303480754198087,C,4725,Incorrect
2,new_learn,12,482,B,53.78034718451771,85.138491003016,2.6890173592258857,1.3373522893639789,B,1677,Incorrect
2,new_learn,12,483,D,68.7161527675544,16.45167195470532,3.43580763837772,0.2584222587608573,B,1053,Correct
2,new_learn,12,484,A,43.2964010753891,45.77522927618118,2.164820053769455,0.7190356200521961,A,3028,Correct
2,new_learn,12,485,A,29.26920974585233,43.29021758732299,1.4634604872926165,0.6800011477231879,A,1328,Incorrect
2,new_learn,12,486,A,30.76830757399575,51.84782045193093,1.5384153786997874,0.8144236591821441,D,950,Incorrect
2,new_learn,12,487,C,98.17498668188169,57.36243825435117,4.908749334094085,0.9010470730593387,B,1374,Incorrect
2,new_learn,12,488,B,34.78303080956134,77.53254222639367,1.739151540478067,1.217878325362894,B,798,Correct
2,new_learn,12,489,D,47.85053785244561,18.063853549668387,2.3925268926222802,0.28374634803580057,D,1202,Correct
2,new_learn,12,490,C,54.52982333985938,47.748050154601145,2.726491166992969,0.7500246179446596,D,2624,Incorrect
2,new_learn,12,491,B,58.08265016855912,69.81488440901289,2.904132508427956,1.0966496398528773,A,1358,Incorrect
2,new_learn,12,492,D,60.354067922705454,27.528288467455123,3.0177033961352726,0.43241334407628823,C,4124,Incorrect
2,new_learn,12,493,A,24.393091315390386,34.28783700976102,1.2196545657695195,0.5385920842867472,A,765,Incorrect
2,new_learn,12,494,C,52.76196588030858,41.71010177958847,2.638098294015429,0.6551807466561884,D,1086,Incorrect
2,new_learn,12,495,A,9.747032526609406,34.55087637724735,0.48735162633047024,0.5427238970092471,A,820,Correct
2,new_learn,12,496,C,86.0561916691625,35.53601238124554,4.302809583458125,0.5581983771739846,C,1526,Correct
2,new_learn,12,497,D,53.928318826560805,9.50444873028021,2.69641594132804,0.1492955315373457,B,1094,Incorrect
2,new_learn,12,498,A,14.95825292526135,58.84304913969509,0.7479126462630675,0.9243044544604463,A,852,Correct
2,new_learn,12,499,C,85.66280963327904,72.8971798273647,4.283140481663952,1.1450662230653148,C,831,Incorrect
2,new_learn,12,500,C,70.91058240825917,71.878727686114,3.545529120412959,1.129068414240385,C,2358,Correct
2,new_learn,12,501,C,90.0403337763788,59.127073238108665,4.50201668881894,0.9287658945655392,B,1396,Incorrect
2,new_learn,12,502,D,24.884600316392927,21.78719219978549,1.2442300158196462,0.34223241478597466,D,1181,Incorrect
2,new_learn,12,503,C,87.07927582012869,50.050171124468605,4.353963791006435,0.7861862495777129,B,1046,Incorrect
2,new_learn,12,504,D,56.76358335625578,44.29890343031997,2.838179167812789,0.6958455478938845,D,654,Correct
2,new_learn,12,505,D,41.18034234716653,29.914305016997872,2.0590171173583265,0.46989280439322406,D,1422,Incorrect
2,new_learn,12,506,B,46.29938050620909,55.06110831887813,2.3149690253104547,0.8648978669654969,A,544,Incorrect
2,new_learn,12,507,C,64.36111739258521,42.03981244075131,3.218055869629261,0.6603598296107857,B,18125,Incorrect
2,new_learn,12,508,B,68.70874554856198,86.45909167537062,3.435437277428099,1.358096236216954,B,1515,Incorrect
2,new_learn,12,509,C,71.4395175760362,26.71345861980294,3.57197587880181,0.4196140267597393,B,615,Incorrect
2,new_learn,12,510,C,62.437447308139134,34.244853394722824,3.1218723654069565,0.5379168992406036,B,444,Incorrect
2,new_learn,12,511,D,51.37838672413458,34.06147756495227,2.568919336206729,0.5350364384423381,B,454,Incorrect
2,new_learn,12,512,C,61.04194613372513,50.595007603408824,3.0520973066862562,0.7947445209759445,B,540,Incorrect
2,new_learn,12,513,A,24.39560326355741,36.87768941757032,1.2197801631778704,0.579273390778025,B,718,Incorrect
2,new_learn,12,514,B,51.801614324413464,86.94338177858555,2.590080716220673,1.3657034473692853,B,351,Incorrect
2,new_learn,12,515,D,37.141072716140556,6.6554925427291955,1.857053635807028,0.10454423239129847,B,477,Incorrect
2,new_learn,12,516,B,46.74677382233721,58.76610155285364,2.3373386911168605,0.9230957645927836,B,486,Incorrect
2,new_learn,12,517,B,27.539740505072725,89.66678787920739,1.3769870252536363,1.408482610361561,B,492,Incorrect
2,new_learn,12,518,A,9.40201252277581,50.39264813506522,0.47010062613879045,0.7915658658802815,B,895,Incorrect
2,new_learn,12,519,B,32.76917119099704,73.35985125714498,1.6384585595498522,1.152333848889433,B,461,Incorrect
2,new_learn,12,520,A,11.79004174312919,32.354035928711454,0.5895020871564596,0.5082160079381006,A,1197,Incorrect
2,new_learn,12,521,A,6.2558326630841705,63.731680274787514,0.31279163315420855,1.0010948927610301,A,863,Incorrect
2,new_learn,12,522,B,68.7326127593347,91.01737042966664,3.436630637966735,1.4296975114545079,B,1029,Incorrect
2,new_learn,12,523,D,44.535159856184634,33.7650538795402,2.226757992809232,0.5303802260801351,B,1500,Incorrect
2,new_learn,12,524,B,50.20200177677641,100.50547624825555,2.5101000888388203,1.5787363291353154,D,1343,Incorrect
2,new_learn,12,525,A,45.76649023301297,41.40746147393426,2.2883245116506488,0.6504268838515712,D,871,Incorrect
2,new_learn,12,526,B,43.30152997656323,76.42813410519538,2.165076498828162,1.2005303231622868,C,574,Incorrect
2,new_learn,12,527,C,81.4110474674363,49.16029049880347,4.070552373371815,0.7722080373969055,C,22050,Correct
2,new_learn,12,528,D,52.65157505668076,25.818901916833056,2.632578752834038,0.40556236292839076,B,3352,Incorrect
2,new_learn,12,529,A,8.900370043216526,42.02789935401107,0.4450185021608263,0.660172699281862,A,1046,Correct
2,new_learn,12,530,B,67.91572851222267,83.332576053146,3.3957864256111336,1.308985043666381,D,5310,Incorrect
2,new_learn,12,531,D,66.37796099402848,9.969724744136924,3.3188980497014247,0.1566040700724647,D,3068,Incorrect
2,new_learn,12,532,C,85.87160119225044,25.78145145564872,4.2935800596125215,0.4049740924597395,C,1781,Incorrect
2,new_learn,12,533,C,74.97875624173285,38.82244284627248,3.748937812086643,0.6098215062012963,C,918,Incorrect
2,new_learn,12,534,C,82.53568234674242,72.08935500615301,4.126784117337121,1.1323769404467845,C,638,Correct
2,new_learn,12,535,A,1.609720147199365,52.18797790402542,0.08048600735996825,0.8197668399449635,A,1358,Incorrect
2,new_learn,12,536,C,79.37448213999525,62.71261913673971,3.9687241069997627,0.9850875178367808,B,3398,Incorrect
2,new_learn,12,537,D,34.676386751957395,15.939401013448897,1.7338193375978699,0.2503755256323638,D,1315,Correct
2,new_learn,12,538,D,36.66102619409001,42.141170828810516,1.8330513097045007,0.661951963447318,D,974,Incorrect
2,new_learn,12,539,D,61.74184227003805,28.418465646554147,3.0870921135019023,0.4463962145075421,D,864,Incorrect
2,new_learn,12,540,B,39.10067091083653,95.19384106859302,1.9550335455418264,1.495301358840431,D,995,Incorrect
2,new_learn,12,541,B,73.24581864995905,88.20847568019997,3.6622909324979527,1.3855754959063507,D,207,Incorrect
2,new_learn,12,542,B,65.9708690975596,57.720236601260105,3.29854345487798,0.9066673563499171,B,1149,Incorrect
2,new_learn,12,543,D,60.46879901283266,3.5702005876852922,3.023439950641633,0.056080579690570384,D,7038,Incorrect
2,new_learn,12,544,D,45.162424471234374,31.29335006842033,2.2581212235617185,0.4915547934058148,D,1238,Incorrect
2,new_learn,12,545,C,74.1363058802959,24.203687643363317,3.7068152940147945,0.3801906364508612,C,935,Incorrect
2,new_learn,12,546,B,44.85919072837609,64.69886081070631,2.2429595364188044,1.0162873290927175,A,4596,Incorrect
2,new_learn,12,547,B,35.5574497469006,57.79000581849537,1.77787248734503,0.9077632886514824,A,910,Correct
2,new_learn,12,548,C,60.04544192942475,37.86816951531967,3.0022720964712373,0.5948318157711062,B,1251,Incorrect
2,new_learn,12,549,A,24.522061122845653,44.53485753453952,1.2261030561422828,0.699551906295887,A,860,Incorrect
2,new_learn,12,550,A,8.148794222795821,66.26096188985441,0.40743971113979105,1.0408247554647996,A,709,Correct
2,new_learn,12,551,D,73.37636729404133,15.211249342395046,3.6688183647020662,0.2389377459299542,D,4734,Correct
2,new_learn,12,552,B,43.23914633148853,78.20271534121203,2.1619573165744264,1.2284053800336276,A,4904,Incorrect
2,new_learn,12,553,D,35.45861392665799,16.01175278986801,1.7729306963328995,0.2515120246787261,B,1794,Incorrect
2,new_learn,12,554,C,57.627802486068845,70.31853883547213,2.8813901243034423,1.104561025083439,D,1751,Incorrect
2,new_learn,12,555,A,9.779243411799976,53.67704364266804,0.4889621705899988,0.8431570298711232,A,839,Incorrect
2,new_learn,12,556,B,28.64257178403424,58.98629077331812,1.432128589201712,0.9265544887798379,A,725,Incorrect
2,new_learn,12,557,C,53.300273843663646,48.55076218218818,2.6650136921831824,0.7626335889887377,A,469,Incorrect
2,new_learn,12,558,A,42.229491249453424,59.42611610161595,2.111474562472671,0.933463248881054,C,526,Incorrect
2,new_learn,12,559,D,62.31429841058661,45.147293692078165,3.11571492052933,0.709172030962468,C,11501,Incorrect
2,new_learn,12,560,A,43.06681931939191,56.988309932742375,2.153340965969596,0.8951702791260083,A,716,Correct
2,new_learn,12,561,A,40.92743784813527,32.463278029124666,2.0463718924067633,0.5099319788387049,A,5780,Incorrect
2,new_learn,12,562,B,60.71627746687648,99.39907832902945,3.035813873343824,1.5613570712603766,A,1597,Incorrect
2,new_learn,12,563,D,64.41260458182704,16.280235635164352,3.220630229091352,0.25572934335071545,B,928,Correct
2,new_learn,12,564,B,26.417991086238167,64.4128955743986,1.3208995543119084,1.0117953976648857,A,1131,Incorrect
2,new_learn,12,565,D,33.823523764625975,6.163572385910673,1.6911761882312988,0.0968171686372294,A,877,Correct
2,new_learn,12,566,A,47.9418907582854,62.49055757604645,2.39709453791427,0.9815993829981876,B,4261,Correct
2,new_learn,12,567,B,72.55884318139235,68.55068559525061,3.6279421590696175,1.076791651322915,C,1079,Correct
2,new_learn,12,568,B,68.59391693290752,82.69388965711848,3.4296958466453757,1.298952581217842,B,5239,Incorrect
2,new_learn,12,569,C,51.84147459811253,62.3686283854334,2.5920737299056267,0.979684123750747,B,941,Incorrect
2,new_learn,12,570,A,31.85944570578709,59.45250281393615,1.5929722852893544,0.9338777303889415,D,1602,Incorrect
2,new_learn,12,571,A,37.36207186448665,52.09487286746667,1.8681035932243326,0.8183043494506377,D,729,Incorrect
2,new_learn,12,572,A,7.184297023356521,42.72858816119149,0.35921485116782603,0.671179093327315,D,909,Incorrect
2,new_learn,12,573,B,59.47327883004904,99.9937093176887,2.9736639415024517,1.5706975129882204,D,1253,Incorrect
2,new_learn,12,574,A,25.323494724222833,42.00672805234774,1.2661747362111415,0.6598401412529996,D,867,Correct
2,new_learn,12,575,A,20.57492979563955,43.79219830407509,1.0287464897819776,0.6878862423831487,A,1344,Incorrect
2,new_learn,12,576,A,8.060805932137963,55.95741509623478,0.4030402966068982,0.8789770209010288,D,637,Correct
2,new_learn,12,577,B,28.56269021784043,59.80611593383911,1.4281345108920214,0.9394322722874421,B,1362,Correct
2,new_learn,12,578,D,60.179602722987475,12.626473905804819,3.0089801361493738,0.1983361883160982,D,4337,Correct
2,new_learn,12,579,D,43.49177408273942,50.87345813898784,2.174588704136971,0.7991184117607606,C,5260,Correct
2,new_learn,12,580,C,88.1540870241331,44.54173570867996,4.407704351206656,0.6996599484026355,C,8231,Correct
2,new_learn,12,581,B,57.75095687278891,65.64417639774295,2.8875478436394455,1.0311363116105086,B,14047,Incorrect
2,new_learn,12,582,A,28.749617710400713,45.19216413968941,1.4374808855200356,0.7098768543053617,D,9428,Incorrect
2,new_learn,12,583,C,79.19563358455578,26.911896809617872,3.9597816792277887,0.4227310865563106,C,1134,Correct
2,new_learn,12,584,C,48.66940387626587,50.44736092760823,2.4334701938132937,0.792425292415834,D,2142,Incorrect
2,new_learn,12,585,B,34.59805898591443,80.85944263122464,1.7299029492957214,1.2701371547181033,D,767,Incorrect
2,new_learn,12,586,B,52.00693079687846,91.74167635927913,2.6003465398439225,1.4410748823916186,D,1891,Incorrect
2,new_learn,12,587,D,75.54308548534613,23.57973636932877,3.777154274267306,0.3703896327573366,C,710,Incorrect
2,new_learn,12,588,A,6.39302607601131,51.425774760949956,0.3196513038005655,0.8077941809708188,A,3862,Incorrect
2,new_learn,12,589,B,52.28431379131757,97.69779509291409,2.614215689565879,1.5346333766790994,A,1214,Incorrect
2,new_learn,12,590,B,64.33383653334785,53.31174993115772,3.2166918266673923,0.8374190096687062,C,589,Incorrect
2,new_learn,12,591,A,1.4779011575453822,45.72212095488567,0.0738950578772691,0.7182013964920638,A,1059,Incorrect
2,new_learn,12,592,B,49.23695446633688,70.05551783816398,2.4618477233168443,1.1004295009190233,C,1455,Incorrect
2,new_learn,12,593,B,46.59156853761178,55.86586852664725,2.329578426880589,0.8775390107486412,B,453,Incorrect
2,new_learn,12,594,D,44.85792062420689,23.141101778263906,2.2428960312103445,0.3634995767128379,A,1669,Incorrect
2,new_learn,12,595,A,49.43695564967814,58.487520255830816,2.471847782483907,0.9187198198120116,C,950,Incorrect
2,new_learn,12,596,C,85.41901515223593,71.76799594728087,4.270950757611796,1.127329044154198,C,340,Correct
2,new_learn,12,597,D,66.385742476544,8.05838511187891,3.3192871238272,0.12658081733638074,A,3660,Incorrect
2,new_learn,12,598,A,40.29369876052297,67.08032011997676,2.0146849380261487,1.0536952044468528,B,983,Incorrect
2,new_learn,12,599,B,59.70964229768061,59.33323248824336,2.9854821148840305,0.9320042364940029,B,5699,Correct
2,new_learn,12,600,A,70.74375050057694,14.704586570343704,3.537187525028847,0.23097910571733454,D,3672,Incorrect
2,new_learn,12,601,A,52.394840953338715,2.511877523880848,2.6197420476669357,0.03945647987870697,D,3081,Incorrect
2,new_learn,12,602,C,59.393917953236226,86.15012453573556,2.9696958976618113,1.3532429917365631,A,3347,Incorrect
2,new_learn,12,603,B,3.333539523825241,57.54726636837653,0.16667697619126204,0.9039503462853334,A,1031,Incorrect
2,new_learn,12,604,B,8.384729071011876,39.12618515317971,0.4192364535505938,0.614592679201117,A,791,Incorrect
2,new_learn,12,605,B,12.839384443150873,47.184112597858714,0.6419692221575437,0.7411663075179328,A,1300,Incorrect
2,new_learn,12,606,A,43.678996452726466,7.400490305370045,2.183949822636323,0.1162466298815651,A,764,Correct
2,new_learn,12,607,D,96.9592643808507,50.21862623545413,4.847963219042535,0.7888323362733718,C,1009,Incorrect
2,new_learn,12,608,D,80.62189052625332,68.58577380866092,4.031094526312666,1.0773428156903018,B,3019,Incorrect
2,new_learn,12,609,D,90.14484885695434,57.64956102330181,4.507242442847717,0.9055571869674072,D,1429,Correct
2,new_learn,12,610,C,39.12430401379041,54.548873405876435,1.9562152006895204,0.8568516997675052,D,2605,Incorrect
2,new_learn,12,611,D,89.38360711351541,72.27805675041728,4.46918035567577,1.1353410605142855,D,1830,Correct
2,new_learn,12,612,A,24.136898653935955,31.857401393466958,1.2068449326967978,0.5004148909008852,A,2302,Correct
2,new_learn,12,613,A,27.045562487911493,26.427195575039025,1.3522781243955746,0.41511741736761637,A,1350,Correct
2,new_learn,12,614,C,32.16184005796806,75.8335527244402,1.6080920028984027,1.1911906606735778,D,4850,Incorrect
2,new_learn,12,615,C,25.437819095118424,78.11505082124003,1.2718909547559212,1.2270283489740053,A,1189,Incorrect
2,new_learn,12,616,D,90.22152515614304,68.64764564493177,4.511076257807153,1.0783146962217651,D,1586,Correct
2,new_learn,12,617,B,37.16396116977996,39.97537467022203,1.8581980584889979,0.6279317169423451,A,1092,Incorrect
2,new_learn,12,618,A,55.95709607897447,21.50987902731285,2.7978548039487237,0.33787638965905603,B,949,Incorrect
2,new_learn,12,619,D,61.49009686920102,59.318121169154395,3.0745048434600513,0.9317668684488232,A,797,Incorrect
2,new_learn,12,620,B,32.91245862817658,67.20842853679113,1.645622931408829,1.0557075267524882,D,581,Incorrect
2,new_learn,12,621,D,73.58882350457021,29.28068491198875,3.6794411752285106,0.4599399230579069,C,840,Incorrect
2,new_learn,12,622,D,66.68060632425255,26.800788417766807,3.3340303162126275,0.4209858000183531,A,4925,Incorrect
2,new_learn,12,623,B,27.7241978644786,56.27799177080065,1.38620989322393,0.8840126275296707,C,997,Incorrect
2,new_learn,12,624,B,36.56163877333802,49.867782716505396,1.828081938666901,0.783321299164927,B,5046,Correct
2,new_learn,12,625,D,83.45394520107624,51.91824869627197,4.172697260053812,0.8155299434572794,D,2309,Correct
2,new_learn,12,626,D,77.49018871508984,45.98451842250186,3.8745094357544922,0.7223231262749817,C,1368,Incorrect
2,new_learn,12,627,C,72.65965537665723,89.23800626477417,3.632982768832861,1.4017473245120724,B,1919,Incorrect
2,new_learn,12,628,C,58.156535206869336,98.68129917095683,2.9078267603434664,1.5500822226108726,D,3646,Incorrect
2,new_learn,12,629,C,27.978764764004346,84.0153996969201,1.3989382382002173,1.3197108123812715,B,3350,Incorrect
2,new_learn,12,630,B,28.291258126570273,70.55468121588761,1.4145629063285137,1.1082703409210113,B,798,Correct
2,new_learn,12,631,D,60.21547497769069,34.15300520160177,3.0107737488845343,0.5364741511968306,C,2747,Incorrect
2,new_learn,12,632,A,53.80823797543339,49.78141652789267,2.6904118987716696,0.7819646622466055,C,959,Incorrect
2,new_learn,12,633,B,15.643903592084774,69.23011873470134,0.7821951796042387,1.0874641621204342,C,781,Incorrect
2,new_learn,12,634,B,38.21768964986685,30.777860452848067,1.9108844824933424,0.48345750145939653,C,742,Incorrect
2,new_learn,12,635,A,37.22222649732258,34.8278701334124,1.861111324866129,0.5470749047565389,C,278,Incorrect
2,new_learn,12,636,A,63.71904196937566,18.26727641328184,3.185952098468783,0.2869417069053017,C,539,Incorrect
2,new_learn,12,637,B,24.937054689397854,25.7391308737552,1.2468527344698928,0.4043093223138779,C,742,Incorrect
2,new_learn,12,638,C,52.826865389348605,49.03613217107557,2.6413432694674306,0.7702577629455456,A,11511,Incorrect
2,new_learn,12,639,C,67.32410138799219,77.68120004577351,3.3662050693996095,1.2202134369292057,B,2659,Incorrect
2,new_learn,12,640,D,73.48473821842582,74.45899194577038,3.674236910921291,1.169599110452669,C,1120,Incorrect
2,new_learn,12,641,C,37.91756976615124,72.1595552309509,1.8958784883075621,1.1334796429993115,A,1195,Incorrect
2,new_learn,12,642,A,50.630025541237345,44.26790195861108,2.5315012770618672,0.6953585779150289,B,916,Incorrect
2,new_learn,12,643,A,58.492150091733215,39.6984590880659,2.924607504586661,0.6235819371495139,B,1055,Incorrect
2,new_learn,12,644,D,71.13609823972264,46.136735627784475,3.556804911986132,0.7247141485443109,C,838,Incorrect
2,new_learn,12,645,A,59.68015825242294,11.78759286528893,2.9840079126211467,0.1851590757454958,B,989,Incorrect
2,new_learn,12,646,D,61.880494197591574,48.094072767232475,3.094024709879579,0.7554599284337524,B,3069,Incorrect
2,new_learn,12,647,A,39.28481841162125,35.23393315426846,1.9642409205810625,0.5534533277726184,D,1950,Incorrect
2,new_learn,12,648,D,81.75749450759709,71.82277731096693,4.087874725379854,1.128189547802747,C,1044,Incorrect
2,new_learn,12,649,A,68.31423790197101,12.465521993858578,3.4157118950985508,0.1958079615953405,B,2063,Incorrect
2,new_learn,12,650,C,57.186618872675545,97.79167293547673,2.8593309436337773,1.5361080063817474,A,1149,Incorrect
2,new_learn,12,651,D,84.62514154851445,28.15163077122673,4.231257077425722,0.44220478208729125,D,1382,Correct
2,new_learn,12,652,C,59.18919117803682,70.84635445098442,2.959459558901841,1.112851933384156,C,2327,Correct
2,new_learn,12,653,B,10.313513843532418,53.92736343174934,0.5156756921766209,0.847089043923253,A,1485,Incorrect
2,new_learn,12,654,C,57.612487265469426,51.979977329188074,2.8806243632734714,0.8164995745557063,C,710,Correct
2,new_learn,12,655,A,64.83126472567643,37.706332136522555,3.2415632362838216,0.5922896801695801,C,789,Incorrect
2,new_learn,12,656,C,60.58699788903711,68.1531420232777,3.029349894451855,1.070547051496955,C,805,Correct
2,new_learn,12,657,D,78.03623186203887,28.39608578105401,3.901811593101944,0.4460446724023243,D,1248,Correct
2,new_learn,12,658,C,46.26904338106342,62.76144177422761,2.313452169053171,0.9858544220330849,B,1259,Incorrect
2,new_learn,12,659,A,53.948567489899546,20.27397256870978,2.6974283744949776,0.31846281640469815,B,1317,Incorrect
2,new_learn,12,660,D,62.81128159758695,50.58942921828621,3.1405640798793475,0.7946568959073441,C,868,Incorrect
2,new_learn,12,661,D,66.91017715354042,33.21696183691487,3.3455088576770207,0.5217708164071214,B,1288,Incorrect
2,new_learn,12,662,C,70.74159893357667,82.91207059555175,3.5370799466788334,1.3023797593845186,A,1221,Incorrect
2,new_learn,12,663,D,69.77761061016733,25.070854172142337,3.4888805305083666,0.39381205643211686,A,1404,Incorrect
2,new_learn,12,664,C,43.62873532430122,81.99244765448523,2.181436766215061,1.2879343560058822,C,3007,Correct
2,new_learn,12,665,B,24.402653403147013,56.463617854006856,1.2201326701573507,0.886928435226247,A,1463,Incorrect
2,new_learn,12,666,B,40.00728814863476,68.33564920513585,2.000364407431738,1.0734138676057199,A,732,Incorrect
2,new_learn,12,667,B,13.677444579842916,33.373226869299785,0.6838722289921457,0.5242254217958884,A,278,Incorrect
2,new_learn,12,668,A,66.99264731483242,32.086849596709534,3.349632365741621,0.5040190548493164,C,2565,Incorrect
2,new_learn,12,669,A,37.455598146149285,47.923286176929835,1.872779907307464,0.7527772189466202,C,1013,Incorrect
2,new_learn,12,670,A,60.4202555831905,32.89754976176939,3.021012779159525,0.5167535032633968,C,958,Incorrect
2,new_learn,12,671,C,28.9291316668735,83.01512763472158,1.4464565833436749,1.3039985755703016,C,596,Correct
2,new_learn,12,672,A,49.88744095574264,18.257789093088814,2.4943720477871323,0.2867926804281984,C,1568,Incorrect
2,new_learn,12,673,C,59.22146586804917,83.70877932491372,2.9610732934024586,1.3148944308405903,A,2973,Incorrect
2,new_learn,12,674,D,83.12450601473185,71.48083806290563,4.156225300736593,1.12281837865433,D,780,Correct
2,new_learn,12,675,A,67.02644421522598,42.5677503260593,3.3513222107612988,0.668652658520962,C,987,Incorrect
2,new_learn,12,676,D,71.05917708773956,37.07347646775792,3.552958854386978,0.5823488065707119,C,736,Incorrect
2,new_learn,12,677,B,19.11128123045329,49.48920155037887,0.9555640615226645,0.7773745601134744,A,791,Incorrect
2,new_learn,12,678,A,49.401312047049224,12.494524548694196,2.470065602352461,0.19626353266137503,B,1012,Incorrect
2,new_learn,12,679,C,25.42543775929297,77.01862013536511,1.2712718879646485,1.2098056560344297,A,837,Incorrect
2,new_learn,12,680,B,29.517601181796042,55.846597526206885,1.4758800590898022,0.8772363025815874,C,1293,Incorrect
2,new_learn,12,681,B,5.2436560441165305,47.1961502006609,0.2621828022058265,0.7413553937405836,A,2085,Incorrect
2,new_learn,12,682,D,70.96740068316747,69.27194601474409,3.5483700341583733,1.088121183498944,B,1044,Incorrect
2,new_learn,12,683,A,29.885530779693934,41.96976472835651,1.4942765389846966,0.6592595227174841,A,1143,Correct
2,new_learn,12,684,A,41.98322937090708,32.81428203642549,2.099161468545354,0.5154455368922891,B,1196,Incorrect
2,new_learn,12,685,B,15.398684121627298,34.14567754258702,0.7699342060813649,0.536359048598187,B,2079,Correct
2,new_learn,12,686,D,89.29747180828589,27.815676257767567,4.464873590414294,0.43692762093017307,D,956,Correct
2,new_learn,12,687,A,61.2181731715167,44.147850427684865,3.060908658575835,0.6934728128769788,B,1311,Incorrect
2,new_learn,12,688,A,58.60707287702901,25.72241080827576,2.9303536438514506,0.4040466841394891,A,2221,Correct
2,new_learn,12,689,B,9.840836775971983,42.53047260222639,0.49204183879859914,0.6680671014042819,B,1509,Correct
2,new_learn,12,690,B,21.567293687378765,71.82753618517339,1.0783646843689383,1.1282643000239787,B,971,Correct
2,new_learn,12,691,A,33.13744739215254,23.916226138054128,1.6568723696076268,0.3756752016845152,A,1749,Correct
2,new_learn,12,692,B,5.1464449232855465,63.913804810238624,0.25732224616427735,1.0039556982740883,B,1121,Correct
2,new_learn,12,693,B,30.053104914604585,58.94965227385948,1.5026552457302293,0.9259789725761488,A,1005,Incorrect
2,new_learn,12,694,B,1.387578316083534,45.270098061986815,0.0693789158041767,0.7111010374941367,B,1284,Correct
2,new_learn,12,695,A,25.073828162450397,28.64964804147079,1.25369140812252,0.45002761907508926,B,1126,Incorrect
2,new_learn,12,696,B,33.749975008419895,62.15965639788656,1.6874987504209946,0.976401599446331,A,1295,Incorrect
2,new_learn,12,697,C,49.094071747849725,85.43344786248873,2.4547035873924865,1.341985460878206,C,1833,Correct
2,new_learn,12,698,A,48.453736980613655,-0.3668341818499812,2.4226868490306828,-0.005762217853927615,C,1561,Incorrect
2,new_learn,12,699,A,49.87609225862909,39.988922167397845,2.4938046129314544,0.6281445205303555,C,781,Incorrect
2,new_learn,12,700,C,41.738359532783356,95.87517131595929,2.086917976639168,1.506003669339403,C,1422,Correct
2,new_learn,12,701,C,41.18487290234547,96.95730895426135,2.0592436451172733,1.523001847612717,C,886,Correct
2,new_learn,12,702,D,75.59763460302639,50.269925943915084,3.7798817301513195,0.7896381502095328,D,932,Correct
2,new_learn,12,703,B,23.545799745322494,25.79199043859303,1.1772899872661247,0.40513963841671025,B,1357,Correct
2,new_learn,12,704,D,68.17132002551385,66.03906950321968,3.408566001275693,1.0373392780061035,D,1916,Correct
2,new_learn,12,705,C,36.997203896778956,75.09489436458304,1.8498601948389477,1.179587842289378,A,2352,Incorrect
2,new_learn,12,706,A,61.704432103963825,13.605822148189159,3.0852216051981913,0.21371975453400177,C,853,Incorrect
2,new_learn,12,707,C,33.7225986784636,60.69352027605491,1.6861299339231801,0.9533715870987863,C,1598,Correct
2,new_learn,12,708,C,63.11654669975857,89.36988145856014,3.155827334987929,1.403818815212016,D,987,Incorrect
2,new_learn,12,709,B,16.98457419053893,42.39951048634693,0.8492287095269464,0.6660099532985545,B,881,Correct
2,new_learn,12,710,D,75.7019237299113,67.19119398091449,3.785096186495565,1.0554368069818383,D,1018,Correct
2,new_learn,12,711,A,32.973053711293936,17.64063756652581,1.6486526855646968,0.27709848691818806,A,2469,Correct
2,new_learn,12,712,A,59.37678116703634,12.200653058548044,2.968839058351817,0.19164741008866187,A,1695,Correct
2,new_learn,12,713,C,36.36684927907845,55.454338785266316,1.8183424639539225,0.8710747166873609,A,1380,Incorrect
2,new_learn,12,714,D,77.26619037616636,63.3308763740923,3.863309518808318,0.9947990798112588,D,654,Correct
2,new_learn,12,715,D,57.40319008084646,36.93790383574914,2.8701595040423227,0.5802192366469787,D,2165,Correct
2,new_learn,12,716,D,66.18982086892501,67.77670127778656,3.309491043446251,1.064633934094221,D,862,Correct
2,new_learn,12,717,B,15.644134033610031,44.87392932513773,0.7822067016805017,0.7048780335278014,B,527,Correct
2,new_learn,12,718,D,51.80601695035723,47.07566980453074,2.5903008475178613,0.7394628921036632,C,1188,Incorrect
2,new_learn,12,719,B,36.23394078691554,45.792908029576594,1.8116970393457767,0.7193133172611543,B,1945,Correct
2,new_learn,12,720,C,69.94212505829843,72.40285872973445,3.4971062529149215,1.1373014454211667,A,1443,Incorrect
2,new_learn,12,721,A,30.99500474521386,17.292303819392615,1.5497502372606928,0.2716268732132328,B,1783,Incorrect
2,new_learn,12,722,C,34.9021084252788,84.03802950097858,1.74510542126394,1.320066280512183,B,2055,Incorrect
2,new_learn,12,723,B,8.882911498969921,32.6694134864331,0.44414557494849605,0.5131699470303277,B,885,Correct
2,new_learn,12,724,D,68.54293577055661,33.32735201578522,3.42714678852783,0.5235048212819592,D,772,Correct
2,new_learn,12,725,C,47.4183782824004,70.14141818060742,2.3709189141200198,1.1017788203428291,A,1616,Incorrect
2,new_learn,12,726,D,88.23308457237209,38.58932953940663,4.4116542286186045,0.6061597709397774,D,566,Correct
2,new_learn,12,727,A,47.66914701399489,50.31686613229344,2.3834573506997443,0.7903754849643707,A,3691,Correct
2,new_learn,12,728,B,36.45071123485444,32.76169692055023,1.8225355617427221,0.5146195318236798,C,2040,Incorrect
2,new_learn,12,729,D,55.88234009236623,59.096064763486524,2.794117004618311,0.9282788145851795,A,1454,Incorrect
2,new_learn,12,730,A,30.87209286014127,15.837412368238585,1.5436046430070636,0.24877349173965232,A,1074,Correct
2,new_learn,12,731,D,71.76316272040192,52.22757836410379,3.588158136020096,0.8203888825172685,D,688,Correct
2,new_learn,12,732,B,18.94886424015545,30.376606377534728,0.9474432120077725,0.47715461718325974,B,1029,Correct
2,new_learn,12,733,A,42.93103415987151,19.01439983269142,2.1465517079935754,0.2986774941340118,A,4551,Correct
2,new_learn,12,734,B,41.74532861309139,43.08917840124233,2.0872664306545694,0.6768432315728145,A,1605,Incorrect
2,new_learn,12,735,A,24.61448362181673,33.07300511751514,1.2307241810908365,0.5195095495466159,B,837,Incorrect
2,new_learn,12,736,A,41.98430071345413,36.14924774859341,2.0992150356727066,0.5678310557988921,C,2485,Incorrect
2,new_learn,12,737,B,38.13400349952329,45.588373018250216,1.9067001749761645,0.7161004888162302,C,1452,Incorrect
2,new_learn,12,738,A,35.25209075260769,18.16840564911141,1.7626045376303847,0.28538864857343854,C,518,Incorrect
2,new_learn,12,739,B,32.29497896027884,49.372367970988236,1.614748948013942,0.7755393425399432,C,790,Incorrect
2,new_learn,12,740,C,52.614220801679394,62.560772181632025,2.6307110400839697,0.9827023114435993,C,622,Correct
2,new_learn,12,741,B,22.301502107454123,70.79461859833931,1.1150751053727062,1.1120392685111706,B,2102,Correct
2,new_learn,12,742,D,81.38175312594788,43.22905326019777,4.069087656297394,0.6790403807193961,D,822,Correct
2,new_learn,12,743,D,80.45173902894955,66.3738629590489,4.022586951447477,1.0425982013126185,D,1513,Correct
2,new_learn,12,744,D,64.57897148508182,30.990649363509128,3.228948574254091,0.48679998185188733,C,1543,Incorrect
2,new_learn,12,745,B,47.57810341628695,49.55381800837154,2.3789051708143476,0.7783895530621281,C,1559,Incorrect
2,new_learn,12,746,C,50.35502139135695,86.31319625972196,2.5177510695678476,1.3558045163869827,C,618,Correct
2,new_learn,12,747,C,25.603148018147703,76.3166143728965,1.2801574009073853,1.1987785753036844,B,2253,Incorrect
2,new_learn,12,748,C,60.26260713645806,84.14600872751473,3.013130356822903,1.3217624142363145,C,1142,Correct
2,new_learn,12,749,B,44.844600460376455,45.39131216387843,2.2422300230188226,0.7130050641542075,A,839,Incorrect
2,new_learn,12,750,A,37.11823853642935,2.0876059222984793,1.8559119268214674,0.03279203714541724,A,1925,Correct
2,new_learn,12,751,D,78.30124643586257,39.46021008313121,3.9150623217931284,0.6198395305313744,D,2492,Correct
2,new_learn,12,752,C,42.59652028867858,54.07429784071636,2.129826014433929,0.8493970842221046,C,2164,Correct
2,new_learn,12,753,D,59.75018225375042,38.05037538501045,2.987509112687521,0.5976938988794136,D,2885,Correct
2,new_learn,12,754,B,11.484774750299138,60.75416282487611,0.5742387375149569,0.9543241580281444,A,1055,Incorrect
2,new_learn,12,755,A,32.94734059726758,22.359376423081805,1.6473670298633791,0.3512202635480131,B,1094,Incorrect
2,new_learn,12,756,D,88.22408769177108,44.66800960988456,4.411204384588554,0.701643454204458,D,1133,Correct
2,new_learn,12,757,C,63.806974606984134,92.60495771220143,3.1903487303492066,1.4546352741732276,C,707,Correct
2,new_learn,12,758,B,26.43934795065317,68.27856289945183,1.3219673975326582,1.0725171580129322,B,2006,Correct
2,new_learn,12,759,A,59.08825575340244,18.484106046622102,2.954412787670122,0.29034765882121333,A,2877,Correct
2,new_learn,12,760,A,65.34344570618272,35.1019142203958,3.267172285309136,0.5513795792086726,C,2487,Incorrect
2,new_learn,12,761,C,71.78771000637428,88.6510726918884,3.589385500318714,1.3925277935084566,C,604,Correct
2,new_learn,12,762,B,37.863406824192694,52.406243691129376,1.8931703412096346,0.8231953509114425,C,2271,Incorrect
2,new_learn,12,763,A,38.87958927866363,7.70611459729486,1.9439794639331813,0.121047365032913,C,1502,Incorrect
2,new_learn,12,764,C,48.75860904094963,50.62778975263949,2.4379304520474814,0.795259461771904,C,1626,Correct
2,new_learn,12,765,C,39.090367340647084,98.39164250222859,1.954518367032354,1.5455323062981727,C,711,Correct
2,new_learn,12,766,D,89.68995926610418,59.598540724795306,4.484497963305209,0.9361716885284451,D,444,Correct
2,new_learn,12,767,D,86.66339633508034,61.65306313175401,4.333169816754017,0.9684440510301306,D,4438,Correct
2,new_learn,12,768,A,29.683830146135293,39.49004341714949,1.4841915073067644,0.620308151446294,B,646,Incorrect
2,new_learn,12,769,C,34.29018366004019,92.0477973015415,1.7145091830020096,1.4458834189082255,C,996,Correct
2,new_learn,12,770,A,58.73021075067888,44.588861936901495,2.936510537533944,0.7004002054644964,A,1894,Correct
2,new_learn,12,771,C,68.62588778928395,77.50356093659964,3.4312943894641976,1.2174230883273516,C,2989,Correct
2,new_learn,12,772,C,57.88186315887326,84.51941712538942,2.8940931579436633,1.3276278996340738,C,1452,Correct
2,new_learn,12,773,B,16.576748874209446,47.16803088982826,0.8288374437104723,0.7409136966389045,B,6663,Correct
2,new_learn,12,774,D,69.09091573865354,71.25801306043229,3.4545457869326763,1.1193182517002982,C,1140,Incorrect
2,new_learn,12,775,D,50.29001405129039,41.30075590544306,2.51450070256452,0.648750756701226,C,903,Incorrect
2,new_learn,12,776,A,41.78778867165064,14.062516985678984,2.089389433582532,0.2208935002659539,A,5175,Correct
2,new_learn,12,777,A,43.07769013920265,43.96154155821595,2.1538845069601327,0.690546279998868,C,2118,Incorrect
2,new_learn,12,778,B,43.18433661299888,55.9602585029552,2.159216830649944,0.879021685029349,C,1524,Incorrect
2,new_learn,12,779,D,81.83431998069142,75.13706109802494,4.091715999034571,1.180250195789413,D,845,Correct
2,new_learn,12,780,D,52.56894881085421,44.18415174909512,2.6284474405427103,0.6940430327002692,B,3477,Incorrect
2,new_learn,12,781,D,90.56978121797171,61.52925005191339,4.528489060898585,0.9664991997199026,D,672,Correct
2,new_learn,12,782,D,66.22395280112592,50.741720507429626,3.311197640056296,0.7970490818832373,A,1379,Incorrect
2,new_learn,12,783,D,50.924352960135415,43.65103628223901,2.546217648006771,0.685668874529318,C,1341,Incorrect
2,new_learn,12,784,C,36.04213234427801,91.86029050044647,1.8021066172139004,1.4429380689641347,C,1142,Correct
2,new_learn,12,785,A,47.81523495732436,25.154284289402828,2.3907617478662178,0.3951225736494854,A,1413,Correct
2,new_learn,12,786,D,69.49194661552163,33.43208064879941,3.4745973307760813,0.5251498948024487,D,3753,Correct
2,new_learn,12,787,D,67.07347465992629,29.602382289056337,3.353673732996315,0.46499313364027994,D,978,Correct
2,new_learn,12,788,A,61.30275538093935,30.70727971716297,3.065137769046968,0.4823488218558302,D,1622,Incorrect
2,new_learn,12,789,B,39.44865408920706,50.571919888851575,1.972432704460353,0.7943818600037382,B,5047,Correct
2,new_learn,12,790,B,22.962263965142128,72.98543836617053,1.1481131982571064,1.1464525849509597,B,3614,Correct
2,new_learn,12,791,B,1.0604012707373904,38.45491620366944,0.05302006353686952,0.6040484111992951,A,1876,Incorrect
2,new_learn,12,792,B,24.885748980265912,43.824674034580994,1.2442874490132956,0.688396369965035,B,1711,Correct
2,new_learn,12,793,D,93.02687801848421,62.49072968357251,4.651343900924211,0.9816020864568851,D,855,Correct
2,new_learn,12,794,C,56.4980054818682,78.17393582025281,2.82490027409341,1.227953312375531,C,1396,Correct
2,new_learn,12,795,D,48.647734263544564,55.051594647484556,2.4323867131772285,0.8647484265647034,A,2393,Incorrect
2,new_learn,12,796,B,41.636559460184955,38.777851672628046,2.081827973009248,0.6091210696836147,B,2684,Correct
2,new_learn,12,797,D,78.86774792749516,66.63037513406552,3.943387396374758,1.0466274851355613,D,695,Correct
2,new_learn,12,798,C,40.25508746407475,62.4188595959268,2.0127543732037374,0.9804731537600819,B,3158,Incorrect
2,new_learn,12,799,D,87.27044751542287,54.63598428317932,4.363522375771144,0.8582200342284177,D,621,Correct
2,new_learn,12,800,C,36.03826098508942,84.11613311939774,1.8019130492544713,1.3212931292814052,C,2620,Correct
2,new_learn,12,801,C,57.109307780147674,68.84656980835022,2.855465389007384,1.0814393896738497,C,2408,Correct
2,new_learn,12,802,A,48.907187621240695,4.732582960595256,2.4453593810620347,0.07433923930755144,A,1654,Correct
2,new_learn,12,803,D,91.18455438449502,52.53216864847949,4.559227719224751,0.8251733755160161,D,691,Correct
2,new_learn,12,804,D,91.65617759987869,51.24645812611375,4.582808879993935,0.8049774818574795,D,864,Correct
2,new_learn,12,805,B,40.51959966069318,66.1016532477714,2.025979983034659,1.0383223411666924,B,4092,Correct
2,new_learn,12,806,C,46.50074487610538,82.49660938305601,2.325037243805269,1.2958537099193779,C,2213,Correct
2,new_learn,12,807,B,37.52422557982702,67.1589597789361,1.876211278991351,1.0549304733211902,B,4118,Correct
2,new_learn,12,808,B,14.147682711923137,65.42547737282527,0.7073841355961568,1.0277009953603655,B,2112,Correct
2,new_learn,12,809,A,50.993354938908695,22.20404580542611,2.5496677469454347,0.34878033591148966,A,2739,Correct
2,new_learn,12,810,D,91.50153351780924,32.9061660044577,4.575076675890461,0.5168888468870525,D,587,Correct
2,new_learn,12,811,C,57.02363519930668,87.59825918170688,2.851181759965334,1.3759902375625248,C,1430,Correct
2,new_learn,12,812,C,56.292799591015196,61.02584163284973,2.8146399795507597,0.9585916787644744,C,6057,Correct
2,new_learn,12,813,A,47.555895747477244,8.769314893438189,2.3777947873738623,0.13774807623120486,A,1212,Correct
2,new_learn,12,814,D,66.79673078503937,70.55226938882917,3.3398365392519684,1.1082324560301688,C,2149,Incorrect
2,new_learn,12,815,B,32.96214498189776,71.46236711253457,1.6481072490948878,1.122528237644377,B,887,Correct
2,new_learn,12,816,C,33.76182193041523,57.93077642005938,1.6880910965207616,0.909974508090057,B,1102,Incorrect
2,new_learn,12,817,C,35.480971974660726,80.4176933976479,1.774048598733036,1.263198173983435,B,1189,Incorrect
2,new_learn,12,818,B,37.60157499681931,68.10208731500799,1.8800787498409652,1.069745086014799,B,1767,Correct
2,new_learn,12,819,C,29.87859877888505,70.14288167758697,1.4939299389442524,1.1018018088996266,B,3004,Incorrect
2,new_learn,12,820,D,93.32844600385677,52.64800461608875,4.666422300192838,0.8269929226403295,D,621,Correct
2,new_learn,12,821,A,48.08013964773317,49.128288792920415,2.4040069823866586,0.7717053557763827,A,1717,Correct
2,new_learn,12,822,D,56.99411027481374,37.57035037244121,2.849705513740687,0.5901536836142793,A,1550,Incorrect
2,new_learn,12,823,C,71.3698794367304,63.399062657826185,3.56849397183652,0.9958701474515286,C,1510,Correct
2,new_learn,12,824,A,52.01473943110586,42.99433049614373,2.600736971555293,0.6753533641634838,C,4540,Incorrect
2,new_learn,12,825,D,62.58363019788487,50.97374140008572,3.1291815098942437,0.800693657542476,A,1837,Incorrect
2,new_learn,12,826,B,9.834173396651384,30.50447352792533,0.49170866983256917,0.47916314968477275,B,709,Correct
2,new_learn,12,827,C,36.07111324919785,59.71573611871379,1.8035556624598925,0.9380125894712896,B,1597,Incorrect
2,new_learn,12,828,B,16.40146442348862,30.898940346494268,0.8200732211744309,0.48535941998127824,A,1945,Incorrect
2,new_learn,12,829,A,42.42665955045373,26.719465994813294,2.1213329775226866,0.4197083903857387,A,4994,Correct
2,new_learn,12,830,B,22.9931691091704,68.06960702153253,1.1496584554585199,1.0692348867579542,B,2078,Correct
2,new_learn,12,831,C,24.66641262763574,67.90433476628324,1.233320631381787,1.0666387962432868,B,1188,Incorrect
2,new_learn,12,832,A,40.22274582070737,36.18752543640153,2.0111372910353684,0.5684323203129641,B,3096,Incorrect
2,new_learn,12,833,D,87.56754095961777,61.37126252959555,4.378377047980888,0.9640175375225397,D,787,Correct
2,new_learn,12,834,B,29.16686670713189,25.676890517808886,1.4583433353565944,0.4033316530888891,B,7845,Correct
2,new_learn,12,835,D,63.77812993092049,36.17150148643351,3.1889064965460245,0.568180616695459,D,7892,Correct
2,new_learn,12,836,B,21.099498110384182,69.33559801545191,1.0549749055192092,1.0891210267879936,C,3720,Incorrect
2,new_learn,12,837,D,93.13469779348867,67.46348547298525,4.656734889674434,1.059713951737461,D,811,Correct
2,new_learn,12,838,A,34.173903245496746,29.9698929784776,1.7086951622748372,0.47076597805028775,A,6020,Correct
2,new_learn,12,839,A,67.50422795082142,28.023463201755533,3.375211397541071,0.4401915306138954,D,1860,Incorrect
2,new_learn,12,840,A,26.370614675049474,35.418048492493526,1.3185307337524736,0.5563454047425235,B,4089,Incorrect
2,new_learn,12,841,B,29.80201811326163,52.333434004831915,1.4901009056630814,0.8220516590335311,A,1700,Incorrect
2,new_learn,12,842,A,53.166103319756004,25.622697812049648,2.6583051659878003,0.4024803960574322,A,24492,Correct
2,new_learn,12,843,C,38.58978405683781,66.5828821075014,1.9294892028418902,1.0458814664188085,C,2161,Correct
2,new_learn,12,844,D,48.47153607066029,46.015675310894366,2.423576803533015,0.7228125375333949,D,2980,Correct
2,new_learn,12,845,B,44.53533730410266,66.4254190070577,2.226766865205133,1.0434080418209815,C,2876,Incorrect
2,new_learn,12,846,A,41.229726123503994,21.739304875327324,2.0614863061752,0.3414802024523855,A,1231,Correct
2,new_learn,12,847,C,27.240823425951458,81.28781647530982,1.3620411712975729,1.2768660353259436,A,774,Incorrect
2,new_learn,12,848,B,8.779710104696,32.61790825585081,0.43898550523480007,0.5123609047602338,B,1295,Correct
2,new_learn,12,849,C,41.87877824297654,63.947679724331906,2.0939389121488268,1.0044878041803704,C,2644,Correct
2,new_learn,12,850,D,55.20485793780385,46.29939644233765,2.7602428968901926,0.7272692186444467,D,765,Correct
2,new_learn,12,851,B,27.00973804203432,62.79067881378251,1.350486902101716,0.9863136763764772,C,2405,Incorrect
2,new_learn,12,852,A,32.16704030644655,8.766689628693001,1.6083520153223276,0.13770683866901884,A,821,Correct
2,new_learn,12,853,B,18.624766557068845,28.935937079145205,0.9312383278534423,0.4545246367628954,B,3200,Correct
2,new_learn,12,854,C,48.408956694474966,59.345199091572546,2.420447834723748,0.9321922074595398,C,2916,Correct
2,new_learn,12,855,A,59.15888775606724,20.3882408565041,2.9579443878033618,0.32025773847206274,D,1319,Incorrect
2,new_learn,12,856,B,35.36371170185316,37.88613068466884,1.7681855850926582,0.5951139491594923,B,2564,Correct
2,new_learn,12,857,C,30.483295081044638,70.58202313615539,1.524164754052232,1.1086998268002528,C,2797,Correct
2,new_learn,12,858,A,45.38815127894167,44.54602399534643,2.2694075639470834,0.699727308652075,B,4372,Incorrect
2,new_learn,12,859,D,85.71198743089187,38.61445564776119,4.285599371544594,0.6065544509268772,D,757,Correct
2,new_learn,12,860,D,85.35672729167048,49.09610196308416,4.267836364583524,0.771199766235603,D,685,Correct
2,new_learn,12,861,A,45.87080607472649,26.804446532178996,2.2935403037363242,0.4210432615451697,A,6294,Correct
2,new_learn,12,862,A,38.67232898284319,38.025726114395596,1.9336164491421597,0.5973067090420138,B,1837,Incorrect
2,new_learn,12,863,A,44.85271887743049,39.19926252551937,2.242635943871525,0.6157405758815467,C,1484,Incorrect
2,new_learn,12,864,A,74.82876931439361,18.188550682409186,3.7414384657196806,0.2857050860165116,D,695,Incorrect
2,new_learn,12,865,C,32.8596728092604,94.06578435195237,1.6429836404630203,1.4775818853712763,C,1838,Correct
2,new_learn,12,866,A,62.15637007970208,5.778472628244014,3.1078185039851043,0.09076803578930548,A,1854,Correct
2,new_learn,12,867,D,77.7913962600726,43.240623383019624,3.88956981300363,0.6792221237836874,D,3614,Correct
2,new_learn,12,868,D,52.355863109090166,38.65890346797349,2.617793155454508,0.6072526356541124,D,2380,Correct
2,new_learn,12,869,D,92.0045742619801,60.20453802038435,4.600228713099005,0.9456906717880343,D,781,Correct
2,new_learn,12,870,D,71.89861454814556,73.59674426993473,3.594930727407278,1.1560549556327682,C,2999,Incorrect
2,new_learn,12,871,B,42.85931611471846,35.82877273199804,2.142965805735923,0.5627970460099168,B,1597,Correct
2,new_learn,12,872,D,93.67666611853906,45.115732262802815,4.683833305926953,0.7086762651907267,D,829,Correct
2,new_learn,12,873,A,55.10258824366774,50.944193503885984,2.755129412183387,0.8002295202743254,B,7083,Incorrect
2,new_learn,12,874,D,66.95655536389228,63.26089429666269,3.347827768194614,0.9936998039095796,D,1717,Correct
2,new_learn,12,875,D,74.78826639251267,24.967933049454,3.739413319625634,0.3921953752174325,B,1368,Incorrect
2,new_learn,12,876,D,66.53462590626371,63.38619264758267,3.326731295313186,0.9956679858033654,C,661,Incorrect
2,new_learn,12,877,D,52.33581625475689,53.02814020547984,2.6167908127378445,0.832964078515325,B,2934,Incorrect
2,new_learn,12,878,C,54.80208057057755,100.46001455532388,2.7401040285288776,1.5780222185326462,C,1214,Correct
2,new_learn,12,879,B,0.38083464846961945,39.64808417796069,0.01904173242348097,0.6227906499119551,B,2043,Correct
2,new_learn,12,880,B,13.9968849818745,69.99921078234829,0.6998442490937249,1.0995450317545439,B,1549,Correct
2,new_learn,12,881,A,60.77987460648052,21.393467328249198,3.0389937303240258,0.3360477989662047,A,1797,Correct
2,new_learn,12,882,D,48.95957144021784,53.83255777579703,2.447978572010892,0.8455998401619602,D,2350,Correct
2,new_learn,12,883,A,38.94285397905031,15.293281906125227,1.9471426989525156,0.24022631042780362,A,1135,Correct
2,new_learn,12,884,D,56.43567242161565,48.91531099814184,2.8217836210807827,0.7683599083991122,D,1367,Correct
2,new_learn,12,885,D,89.60791767693007,64.82687577406173,4.480395883846503,1.0182981834348523,D,924,Correct
2,new_learn,12,886,C,63.035177120705235,63.27175001919133,3.151758856035262,0.9938703252003067,D,2612,Incorrect
2,new_learn,12,887,D,74.4065915399961,46.94647123210885,3.720329576999805,0.7374334456737885,D,694,Correct
2,new_learn,12,888,C,63.26755735063282,67.444700368799,3.163377867531641,1.0594188760109187,C,1861,Correct
2,new_learn,12,889,A,52.145888850648305,39.45586602715912,2.607294442532415,0.6197712942597309,D,1128,Incorrect
2,new_learn,12,890,C,66.10107235579353,59.25988687706521,3.3050536177896763,0.9308521263277513,A,1579,Incorrect
2,new_learn,12,891,B,34.23367048167708,50.97399560256949,1.711683524083854,0.8006976505457536,B,3932,Correct
2,new_learn,12,892,A,52.66404026893068,22.98223702281117,2.6332020134465335,0.36100413496961464,A,1655,Correct
2,new_learn,12,893,B,13.024356447907724,34.97025735313607,0.6512178223953862,0.5493115179737836,B,1718,Correct
2,new_learn,12,894,C,36.425951053652426,62.17059818795485,1.8212975526826214,0.9765734726828094,B,5422,Incorrect
