experiment,condition,subject,trial,cat,x,y,xt,yt,resp,rt,fb
2,relearn,15,0,D,67.27692431999998,43.56114321335848,3.363846215999999,0.6842568375052993,C,29098,Incorrect
2,relearn,15,1,B,52.185718174796534,53.386896349628,2.609285908739827,0.8385994068497554,A,12188,Incorrect
2,relearn,15,2,D,50.78494770137638,17.009604115398172,2.539247385068819,0.26718623664702806,A,1961,Incorrect
2,relearn,15,3,B,42.219964987532336,97.5105254254047,2.1109982493766166,1.5316917516206605,A,961,Incorrect
2,relearn,15,4,C,49.712574072899315,58.49710289974158,2.4856287036449656,0.9188703436305717,B,4573,Incorrect
2,relearn,15,5,C,89.71848628724912,55.66252413784494,4.485924314362456,0.8743448845585908,B,1661,Incorrect
2,relearn,15,6,C,94.84403866093136,64.86261010588362,4.742201933046568,1.0188594970065152,C,4491,Correct
2,relearn,15,7,C,69.65123147387888,29.778236499487306,3.482561573693944,0.4677554451182438,D,1088,Incorrect
2,relearn,15,8,D,32.71442041735422,39.34955834199361,1.635721020867711,0.6181014170460504,A,1486,Incorrect
2,relearn,15,9,D,49.740179443207374,28.062639760969027,2.487008972160369,0.4408069145669857,C,732,Incorrect
2,relearn,15,10,C,59.9331943237758,71.24043452018215,2.99665971618879,1.1190421286357446,C,796,Correct
2,relearn,15,11,A,29.50946131147822,70.62676351768269,1.475473065573911,1.1094026070698777,B,895,Incorrect
2,relearn,15,12,C,66.10928129627675,30.740679496763935,3.3054640648138376,0.48287346436695977,C,589,Correct
2,relearn,15,13,B,59.859889741767255,74.26675791382618,2.992994487088363,1.1665795053400398,D,366,Incorrect
2,relearn,15,14,A,4.697906492100998,35.35436422576721,0.2348953246050499,0.5553450546200404,A,974,Correct
2,relearn,15,15,D,57.98642493360907,29.798280130911856,2.899321246680454,0.4680702897444169,D,1359,Correct
2,relearn,15,16,D,38.278068815007984,30.60672610865243,1.9139034407503994,0.480769329466887,D,605,Correct
2,relearn,15,17,B,54.935701838849475,73.1968088117866,2.746785091942474,1.149772784146627,C,349,Incorrect
2,relearn,15,18,D,38.460894348027274,36.82424035247337,1.9230447174013636,0.5784338148267757,D,558,Correct
2,relearn,15,19,B,54.92813089879879,87.80679175552712,2.7464065449399397,1.379265859572264,C,570,Incorrect
2,relearn,15,20,C,79.81694504284778,48.542435468986184,3.9908472521423892,0.7625027932836179,C,717,Correct
2,relearn,15,21,A,25.370986254393088,57.01504036586632,1.2685493127196543,0.8955901597876557,D,1087,Incorrect
2,relearn,15,22,C,82.08947687803762,43.59063714154423,4.10447384390188,0.6847201270458686,B,1484,Incorrect
2,relearn,15,23,D,52.57386455778528,10.708500882690311,2.628693227889264,0.1682087385200985,D,866,Correct
2,relearn,15,24,A,27.87377864768731,71.80339666973842,1.3936889323843655,1.1278851174022202,B,2186,Incorrect
2,relearn,15,25,B,28.99094413255394,90.05076131753457,1.4495472066276969,1.4145140510266727,A,911,Incorrect
2,relearn,15,26,D,52.94564275049771,3.2948674317047697,2.6472821375248854,0.05175565658997986,D,943,Correct
2,relearn,15,27,B,43.19189934797775,64.66863912554905,2.159594967398888,1.0158126079723717,C,397,Incorrect
2,relearn,15,28,D,31.417717944690718,20.405117867088855,1.5708858972345359,0.3205228419344009,D,720,Correct
2,relearn,15,29,A,32.397283436621436,29.813401549956758,1.6198641718310716,0.46830781643933356,D,683,Incorrect
2,relearn,15,30,C,65.20551802215184,63.25587851856644,3.260275901107592,0.9936210162514837,C,668,Correct
2,relearn,15,31,D,46.765457737885285,31.167987780885614,2.3382728868942646,0.48958560719803346,B,253,Incorrect
2,relearn,15,32,B,66.21109421434292,67.70073169903876,3.310554710717146,1.063440606741769,C,686,Incorrect
2,relearn,15,33,B,35.91384629626763,96.85965795243817,1.7956923148133814,1.5214679492629997,A,2141,Incorrect
2,relearn,15,34,D,69.50670497173654,17.15118637308156,3.475335248586827,0.269410205550112,C,781,Incorrect
2,relearn,15,35,D,54.4169432733423,3.4197391087493685,2.720847163667115,0.05371713630620361,D,1248,Correct
2,relearn,15,36,C,64.75679296543393,50.78728291381261,3.2378396482716965,0.7977647744891007,C,1052,Correct
2,relearn,15,37,B,72.57416707046053,78.45293202718327,3.6287083535230265,1.2323357745458918,C,892,Incorrect
2,relearn,15,38,D,64.93832696257918,43.280551358328964,3.246916348128959,0.6798493109532101,B,3090,Incorrect
2,relearn,15,39,C,54.45308113836032,65.59231003517608,2.7226540569180155,1.0303215966924661,C,986,Correct
2,relearn,15,40,D,29.626031700499947,28.774760127872508,1.4813015850249973,0.45199287513266384,A,1166,Incorrect
2,relearn,15,41,B,65.53575546462,68.31187702936249,3.2767877732310002,1.0730404551418729,C,701,Incorrect
2,relearn,15,42,D,50.524469678166426,18.602113433462478,2.5262234839083213,0.2922013145190486,D,782,Correct
2,relearn,15,43,A,29.126312801241717,54.88825677643159,1.4563156400620858,0.8621827212859382,D,2815,Incorrect
2,relearn,15,44,D,47.28099924817704,24.43233638968453,2.364049962408852,0.3837822425593374,D,907,Correct
2,relearn,15,45,B,44.71321218830353,54.994517661960025,2.2356606094151767,0.8638518633726388,D,688,Incorrect
2,relearn,15,46,B,38.327042592967835,92.60344734782149,1.9163521296483919,1.454611549425026,C,700,Incorrect
2,relearn,15,47,C,75.6786248500694,40.25592288838333,3.78393124250347,0.6323385580481115,C,623,Correct
2,relearn,15,48,B,46.74298447361381,60.07695733004202,2.3371492236806906,0.9436866389904375,B,3821,Correct
2,relearn,15,49,D,68.51917243876264,22.97398411426653,3.425958621938132,0.3608744985853417,D,1326,Correct
2,relearn,15,50,C,75.94149820959116,63.84408541280947,3.797074910479558,1.0028605485402078,C,445,Correct
2,relearn,15,51,D,37.647548254965024,1.6871442775320702,1.882377412748251,0.02650160033920405,A,618,Incorrect
2,relearn,15,52,B,44.60295863008633,87.12892537819225,2.2301479315043164,1.3686179594165102,C,1072,Incorrect
2,relearn,15,53,B,53.41120424235365,86.95602843239136,2.670560212117682,1.3659021005427294,C,763,Incorrect
2,relearn,15,54,A,1.1175002635346196,58.180149371818956,0.05587501317673098,0.9138916492563163,A,2381,Correct
2,relearn,15,55,A,25.27720488191642,50.14133147645702,1.2638602440958209,0.7876181930382401,B,2913,Incorrect
2,relearn,15,56,B,59.81645417413539,66.48894837954768,2.9908227087067694,1.04440595887049,C,602,Incorrect
2,relearn,15,57,A,17.926686573744405,29.171268912681352,0.8963343286872203,0.4582212205598602,A,2622,Correct
2,relearn,15,58,D,63.55368679491065,2.4745533077518047,3.177684339745532,0.03887019246274696,D,893,Correct
2,relearn,15,59,C,64.23902339107345,51.21875281372451,3.211951169553672,0.8045422878281422,D,1885,Incorrect
2,relearn,15,60,C,64.73467904065227,31.165480381399124,3.2367339520326137,0.48954622105900153,C,575,Correct
2,relearn,15,61,D,49.07043859226224,13.67787747459659,2.453521929613112,0.2148515969544698,D,2863,Correct
2,relearn,15,62,A,33.54258725757462,66.74540391411107,1.6771293628787307,1.0484343529872737,B,2843,Incorrect
2,relearn,15,63,D,63.22561972269846,36.3030390272298,3.1612809861349227,0.5702468035546435,D,846,Correct
2,relearn,15,64,B,38.633701496387204,85.36020825568055,1.9316850748193601,1.340835015824704,C,799,Incorrect
2,relearn,15,65,C,84.07084470255849,50.827599569566644,4.203542235127924,0.7983980670367715,D,1933,Incorrect
2,relearn,15,66,B,52.352607857138814,69.98143191658929,2.6176303928569404,1.0992657619842559,C,684,Incorrect
2,relearn,15,67,B,39.55050391475575,96.12594156205924,1.9775251957377875,1.5099427591538352,D,4798,Incorrect
2,relearn,15,68,D,67.3462096548408,13.108093542017967,3.36731048274204,0.20590145187085723,D,766,Correct
2,relearn,15,69,B,62.487299942799915,79.10971710247561,3.124364997139996,1.2426525303835212,C,431,Incorrect
2,relearn,15,70,B,48.21633735529467,79.56883761003047,2.4108168677647335,1.249864378451755,C,814,Incorrect
2,relearn,15,71,B,26.01407908911969,64.38495383890665,1.3007039544559844,1.0113564899101355,B,941,Correct
2,relearn,15,72,D,72.80218500182445,14.335595614540035,3.6401092500912227,0.22518300933736513,D,684,Correct
2,relearn,15,73,D,37.342425135070094,34.25589968551226,1.8671212567535047,0.5380904139705711,A,2144,Incorrect
2,relearn,15,74,D,36.90857938081909,25.98616252811753,1.8454289690409547,0.408189686466622,D,812,Correct
2,relearn,15,75,B,64.90735454515801,68.54248574185698,3.2453677272579005,1.076662848327005,C,1627,Incorrect
2,relearn,15,76,C,70.50902766204094,70.68835558890392,3.5254513831020464,1.1103700930622178,C,1007,Correct
2,relearn,15,77,C,90.61013333261597,60.096276538902444,4.5305066666307985,0.9439901044135828,C,1164,Correct
2,relearn,15,78,B,57.7064148338293,80.94780856552147,2.885320741691465,1.2715252035681759,D,1534,Incorrect
2,relearn,15,79,C,75.75728725439683,72.35023930488204,3.7878643627198416,1.1364749014284048,C,1086,Correct
2,relearn,15,80,A,8.279234135199324,50.19279697801283,0.41396170675996624,0.7884266112462452,A,1086,Correct
2,relearn,15,81,A,19.498807059912608,67.8436690644402,0.9749403529956304,1.0656858616271125,A,1294,Correct
2,relearn,15,82,B,47.54939159129998,88.552209951658,2.377469579564999,1.3909748612163486,C,1133,Incorrect
2,relearn,15,83,B,42.76822939818612,85.95791086149119,2.138411469909306,1.350223706401935,B,2526,Correct
2,relearn,15,84,B,51.424992112510374,51.90590401468029,2.5712496056255185,0.8153360336522828,C,1214,Incorrect
2,relearn,15,85,C,69.22007731386444,66.49884803952712,3.4610038656932214,1.0445614623658122,C,813,Correct
2,relearn,15,86,C,52.03188314299341,38.84677604964092,2.6015941571496706,0.6102037312659992,D,558,Incorrect
2,relearn,15,87,B,35.628869810151095,76.20467859243584,1.7814434905075547,1.1970202921758393,B,847,Correct
2,relearn,15,88,A,13.220677565205198,65.19340998756287,0.6610338782602599,1.0240556893969748,A,748,Correct
2,relearn,15,89,A,6.213362024791227,66.48561058574181,0.31066810123956135,1.0443535289279913,A,669,Correct
2,relearn,15,90,D,58.766326634354115,10.538275198854153,2.938316331717706,0.1655348397311386,D,814,Correct
2,relearn,15,91,A,25.149899234800635,55.21655129832688,1.257494961740032,0.8673395595769383,B,782,Incorrect
2,relearn,15,92,D,37.42615525565421,21.25812645137697,1.8713077627827104,0.33392186944364377,C,926,Incorrect
2,relearn,15,93,A,2.372284097824547,36.820903523145354,0.11861420489122736,0.5783814000342598,A,638,Correct
2,relearn,15,94,D,41.57866721551912,4.013434197664555,2.078933360775956,0.06304287695524506,B,1181,Incorrect
2,relearn,15,95,B,44.63455041508235,97.82628240785358,2.2317275207541174,1.5366516507025658,B,1646,Correct
2,relearn,15,96,B,56.895431585303584,51.12523958291232,2.844771579265179,0.8030733854334772,C,1373,Incorrect
2,relearn,15,97,B,59.95236530268516,68.36519041905719,2.9976182651342578,1.0738778999088867,D,1421,Incorrect
2,relearn,15,98,B,65.90963150748502,78.73998380602595,3.295481575374251,1.2368447733439518,C,558,Incorrect
2,relearn,15,99,A,10.41127652126765,57.198397917538756,0.5205638260633826,0.8984703334742274,A,702,Correct
2,relearn,15,100,B,47.446205288127196,87.03152252357053,2.37231026440636,1.367087958953919,C,1375,Incorrect
2,relearn,15,101,D,42.661466897940215,43.57980546408821,2.133073344897011,0.6845499834542592,D,574,Correct
2,relearn,15,102,A,44.523929407743005,57.350816792956685,2.22619647038715,0.9008645235706343,C,732,Incorrect
2,relearn,15,103,B,44.20696695221562,91.439965489087,2.2103483476107812,1.4363356191250998,C,1165,Incorrect
2,relearn,15,104,C,58.53033469068085,46.03552475407271,2.926516734534043,0.7231243318577296,C,703,Correct
2,relearn,15,105,D,50.7967480189876,9.801781763955528,2.5398374009493803,0.15396602790866545,D,543,Correct
2,relearn,15,106,C,92.42770761615054,64.320197674151,4.621385380807527,1.0103393024527805,C,893,Correct
2,relearn,15,107,C,74.25129750840088,52.28700683503588,3.712564875420044,0.8213223827557403,C,667,Correct
2,relearn,15,108,D,50.02988707986152,37.241888063019026,2.501494353993076,0.5849942097229699,C,688,Incorrect
2,relearn,15,109,D,63.42194608688213,35.37658441126034,3.171097304344107,0.5556940884775734,C,526,Incorrect
2,relearn,15,110,B,46.73653583530415,73.80918047719446,2.3368267917652075,1.1593918957731866,C,636,Incorrect
2,relearn,15,111,C,85.11923728665627,35.95445856679082,4.255961864332813,0.5647713144861432,C,956,Correct
2,relearn,15,112,D,44.85111007391666,17.50613578679006,2.242555503695833,0.2749857379026252,B,1229,Incorrect
2,relearn,15,113,D,75.46105590326742,23.10235952457571,3.7730527951633714,0.3628910148149862,C,816,Incorrect
2,relearn,15,114,B,73.45077038815475,66.6367185304888,3.6725385194077376,1.0467271269735723,C,703,Incorrect
2,relearn,15,115,B,45.19570297820315,64.70322950513665,2.2597851489101575,1.0163559523843582,C,2378,Incorrect
2,relearn,15,116,A,22.439411172396856,67.1515296264064,1.1219705586198427,1.0548137607581785,A,1311,Correct
2,relearn,15,117,D,48.32354545565185,2.412001995148149,2.4161772727825928,0.037887638742006735,D,812,Correct
2,relearn,15,118,C,92.70938230739512,58.3535345175838,4.635469115369756,0.9166151767571983,C,624,Correct
2,relearn,15,119,B,47.76408076640302,74.58976918817432,2.388204038320151,1.1716533545726335,C,668,Incorrect
2,relearn,15,120,C,61.84898209383582,54.42454608023539,3.092449104691791,0.8548987707031332,C,863,Correct
2,relearn,15,121,C,52.89394623071105,49.936435431705256,2.6446973115355523,0.7843996934935314,D,956,Incorrect
2,relearn,15,122,B,27.709800935457007,67.70521884900327,1.3854900467728504,1.0635110907285894,A,767,Incorrect
2,relearn,15,123,A,14.979494449510861,63.728153132975564,0.7489747224755431,1.0010394885470069,A,493,Correct
2,relearn,15,124,C,64.84923500478624,66.20001935257444,3.242461750239312,1.0398674723277501,C,639,Correct
2,relearn,15,125,A,9.512024656095724,51.320022754839314,0.4756012328047862,0.8061330323433209,A,669,Correct
2,relearn,15,126,D,42.513409741218155,25.1009584195631,2.1256704870609076,0.3942849328448114,C,571,Incorrect
2,relearn,15,127,D,24.059073146233512,21.74525903299969,1.2029536573116757,0.34157373014239456,A,1727,Incorrect
2,relearn,15,128,C,84.73532377029278,58.345138073869876,4.236766188514639,0.9164832857277588,C,876,Correct
2,relearn,15,129,C,57.46500627467822,36.47268680148528,2.873250313733911,0.5729116245611379,B,893,Incorrect
2,relearn,15,130,D,72.50783227458294,31.320572322099306,3.625391613729147,0.49198239956667494,C,1792,Incorrect
2,relearn,15,131,B,49.36332565188404,80.89083125984793,2.4681662825942023,1.2706302061435495,B,5005,Correct
2,relearn,15,132,B,48.514566757875464,58.06334714997645,2.4257283378937733,0.9120569242459993,C,1964,Incorrect
2,relearn,15,133,B,69.28720789022842,75.14786072748198,3.4643603945114205,1.1804198359722315,C,1054,Incorrect
2,relearn,15,134,C,75.65496597073802,70.15639397615175,3.782748298536901,1.1020140595891479,C,1006,Correct
2,relearn,15,135,C,69.77843418263848,61.469902298853995,3.488921709131924,0.9655669673948103,C,2924,Correct
2,relearn,15,136,D,69.5442132295043,22.802300245618643,3.4772106614752145,0.3581776946829213,D,686,Correct
2,relearn,15,137,A,10.561764517282842,54.82809510823368,0.5280882258641421,0.861237704011747,A,559,Correct
2,relearn,15,138,A,43.56136550107935,40.90900525593589,2.1780682750539677,0.6425971518885721,D,2542,Incorrect
2,relearn,15,139,C,78.86150168512128,38.644360502517266,3.9430750842560642,0.6070241952869191,D,4108,Incorrect
2,relearn,15,140,A,12.702465064113248,28.272608490084544,0.6351232532056624,0.4441050956513501,A,797,Correct
2,relearn,15,141,B,56.167549444750236,59.72920906621742,2.808377472237512,0.9382242220357875,C,797,Incorrect
2,relearn,15,142,B,34.69880791538082,96.480972182796,1.734940395769041,1.5155195671033652,B,1422,Correct
2,relearn,15,143,A,49.033738533998616,48.22940002931589,2.4516869266999306,0.7575856440957107,C,1677,Incorrect
2,relearn,15,144,B,42.22644875045389,93.45893726879584,2.1113224375226944,1.4680495536797915,B,672,Correct
2,relearn,15,145,A,11.692007515222928,29.571486457283548,0.5846003757611463,0.4645078230496602,A,652,Correct
2,relearn,15,146,D,41.145610573792304,35.67602069274546,2.057280528689615,0.560397622588233,C,1470,Incorrect
2,relearn,15,147,A,0.045868524961104384,49.5281476438347,0.002293426248055219,0.7779863239189087,A,702,Correct
2,relearn,15,148,A,10.335087996361533,66.9464125196481,0.5167543998180767,1.0515917887795914,A,587,Correct
2,relearn,15,149,A,21.240036449930727,43.49649680413705,1.0620018224965364,0.6832413740838444,B,2029,Incorrect
2,relearn,15,150,A,16.258851630832112,74.70272721199376,0.8129425815416056,1.1734276950616098,A,1600,Correct
2,relearn,15,151,D,29.810954412555464,19.018877287570326,1.490547720627773,0.2987478258307835,B,2174,Incorrect
2,relearn,15,152,A,35.74926440166378,66.84509477044311,1.7874632200831888,1.0500002932966876,B,2445,Incorrect
2,relearn,15,153,D,55.53938307848557,40.47645566867326,2.7769691539242785,0.6358026788602843,C,2027,Incorrect
2,relearn,15,154,C,78.40896102749193,76.55853138502215,3.9204480513745965,1.202578598844046,D,1630,Incorrect
2,relearn,15,155,C,72.36741639273407,26.99204329469948,3.6183708196367035,0.42399002460002766,D,961,Incorrect
2,relearn,15,156,D,59.08988942091525,11.272224296076288,2.9544944710457623,0.17706368519084822,D,636,Correct
2,relearn,15,157,B,56.36635924745048,59.03060510137603,2.8183179623725243,0.9272505766172157,C,654,Incorrect
2,relearn,15,158,A,48.06425287757924,45.6577538153064,2.403212643878962,0.7171903198278896,C,559,Incorrect
2,relearn,15,159,B,38.665228433736544,70.16025782587805,1.9332614216868274,1.1020747527987214,A,1947,Incorrect
2,relearn,15,160,B,68.29977207283805,60.29856752566441,3.4149886036419024,0.9471676838030769,C,701,Incorrect
2,relearn,15,161,A,17.618121207149404,60.14890529294152,0.8809060603574701,0.9448167949488665,A,639,Correct
2,relearn,15,162,D,60.231673934442384,0.5795897115788975,3.011583696722119,0.009104173899962457,D,767,Correct
2,relearn,15,163,C,85.7600123137862,41.4281345323936,4.2880006156893105,0.6507516154944868,C,654,Correct
2,relearn,15,164,D,58.702705631975576,15.912932296875452,2.935135281598779,0.24995975600467837,B,1530,Incorrect
2,relearn,15,165,D,38.6458031312618,47.19649195470308,1.9322901565630901,0.7413607620005248,C,766,Incorrect
2,relearn,15,166,C,55.750436089206126,64.00875577322843,2.7875218044603063,1.0054471845129884,C,637,Correct
2,relearn,15,167,C,74.10908205049542,46.11977162107728,3.705454102524771,0.724447678550077,C,1020,Correct
2,relearn,15,168,B,41.486692378296006,57.88652329339607,2.0743346189148,0.9092793816019376,C,448,Incorrect
2,relearn,15,169,B,43.205642581162294,81.78876075687685,2.160282129058115,1.2847348497000874,B,1676,Correct
2,relearn,15,170,B,48.63524846199392,88.05086821040516,2.4317624230996957,1.3830998035600595,B,512,Correct
2,relearn,15,171,B,45.77970454351781,73.6588445099166,2.288985227175891,1.1570304239213345,C,589,Incorrect
2,relearn,15,172,C,80.27941489176885,74.95034286318727,4.013970744588443,1.1773172326151264,C,749,Correct
2,relearn,15,173,A,3.190851587028771,43.71551735516786,0.15954257935143853,0.6866817408543623,A,573,Correct
2,relearn,15,174,B,55.1909775440201,82.29707883241407,2.759548877201005,1.2927194913590607,B,928,Correct
2,relearn,15,175,C,82.8877162182256,57.04391729448726,4.14438581091128,0.8960437575217245,C,459,Correct
2,relearn,15,176,C,81.03625267130451,48.29707687580897,4.051812633565225,0.7586487095145147,C,413,Correct
2,relearn,15,177,C,78.76853838022657,47.94154706532085,3.9384269190113286,0.7530640603107064,C,588,Correct
2,relearn,15,178,A,46.21420937083637,56.54199742822828,2.310710468541819,0.8881596186990746,B,958,Incorrect
2,relearn,15,179,C,77.49482552255407,30.899463213609675,3.874741276127703,0.4853676331587211,C,624,Correct
2,relearn,15,180,C,69.4799741221539,66.68932648411987,3.4739987061076953,1.0475534907768111,C,924,Correct
2,relearn,15,181,B,48.82174450113999,65.05072970717326,2.4410872250569993,1.021814472793554,C,1773,Incorrect
2,relearn,15,182,D,58.25568546820091,30.444380881762857,2.9127842734100455,0.4782192166061786,D,4046,Correct
2,relearn,15,183,C,49.52643033890938,47.34898468969579,2.476321516945469,0.7437561122804195,D,1885,Incorrect
2,relearn,15,184,C,60.19616785304846,36.94674822670352,3.009808392652423,0.5803581640152176,C,638,Correct
2,relearn,15,185,A,44.53007544371826,52.26461543260115,2.226503772185913,0.8209706594287774,D,1758,Incorrect
2,relearn,15,186,C,91.34801290143541,58.6440649053941,4.56740064507177,0.9211788174171457,D,701,Incorrect
2,relearn,15,187,C,72.43124592315016,51.38217833099105,3.6215622961575082,0.8071093698504108,C,397,Correct
2,relearn,15,188,D,59.33499543043487,44.254119627775935,2.966749771521744,0.6951420855685236,B,878,Incorrect
2,relearn,15,189,A,47.739008797773025,44.789164552290295,2.386950439888651,0.703546551589498,D,864,Incorrect
2,relearn,15,190,B,30.063008103580486,78.73863789011916,1.5031504051790245,1.2368236317463264,A,1502,Incorrect
2,relearn,15,191,D,69.49274970455491,40.22250441773123,3.4746374852277455,0.6318136219386372,C,942,Incorrect
2,relearn,15,192,D,37.127117808465066,33.51436698529424,1.8563558904232533,0.5264424455535633,B,2829,Incorrect
2,relearn,15,193,D,67.86829697273747,9.467315815251876,3.3934148486368736,0.14871224907204877,D,2078,Correct
2,relearn,15,194,B,50.187681895222134,84.3499343816433,2.509384094761107,1.3249656709207585,C,1084,Incorrect
2,relearn,15,195,C,68.45946228768636,65.84541824832954,3.4229731143843183,1.034297411207497,C,940,Correct
2,relearn,15,196,B,55.90396766018394,86.86511895645498,2.795198383009197,1.3644740978340122,D,2145,Incorrect
2,relearn,15,197,D,59.890666176323705,30.782546140333057,2.994533308816185,0.4835311040662959,D,2638,Correct
2,relearn,15,198,A,16.707698819850016,55.260556700313245,0.8353849409925007,0.8680307948149315,A,780,Correct
2,relearn,15,199,C,63.216481293929995,29.931316601573567,3.1608240646965,0.47016002173886867,D,1740,Incorrect
2,relearn,15,200,B,52.52996286636337,64.48354968855801,2.6264981433181687,1.0129052298948313,C,686,Incorrect
2,relearn,15,201,A,18.693151667783273,49.96448551777854,0.9346575833891636,0.7848403032152333,A,1037,Correct
2,relearn,15,202,B,36.765329115511584,79.04305018071065,1.838266455775579,1.24160532882525,C,1950,Incorrect
2,relearn,15,203,A,37.169015042512996,62.87847992540079,1.8584507521256497,0.987692853012662,B,1676,Incorrect
2,relearn,15,204,B,32.57477629712574,75.82507235406699,1.628738814856287,1.1910574513272567,A,1213,Incorrect
2,relearn,15,205,A,33.87711811351642,42.454855367563816,1.693855905675821,0.6668793086597785,C,1006,Incorrect
2,relearn,15,206,B,57.478241421111086,87.06431251150318,2.8739120710555546,1.3676030228799214,C,602,Incorrect
2,relearn,15,207,C,55.120930803623565,45.153453989586126,2.756046540181178,0.7092687966894424,D,1502,Incorrect
2,relearn,15,208,B,52.414269430442964,82.13414953479565,2.620713471522148,1.2901602039367979,C,640,Incorrect
2,relearn,15,209,D,53.24440592011215,46.054910653469065,2.6622202960056076,0.7234288448533635,C,509,Incorrect
2,relearn,15,210,D,66.11157204551002,19.609910191599933,3.3055786022755007,0.3080317489774298,D,861,Correct
2,relearn,15,211,A,10.408843804325665,34.848757611606466,0.5204421902162832,0.5474030044967713,A,604,Correct
2,relearn,15,212,B,59.97088987991847,93.2128581725055,2.9985444939959236,1.464184152274253,B,1054,Correct
2,relearn,15,213,A,34.37864806162998,30.426642691242638,1.718932403081499,0.4779405857610472,C,1117,Incorrect
2,relearn,15,214,B,33.37768681861888,76.83095216159721,1.6688843409309442,1.206857774395913,C,527,Incorrect
2,relearn,15,215,A,14.43884331014826,61.590153857590664,0.721942165507413,0.9674558744623596,A,510,Correct
2,relearn,15,216,C,86.55270596676436,56.67255718278194,4.327635298338219,0.890210446527876,C,765,Correct
2,relearn,15,217,A,15.143257008503962,55.74247736843752,0.7571628504251982,0.8756007869678931,A,655,Correct
2,relearn,15,218,B,31.917327022292834,66.00505070074033,1.5958663511146418,1.0368049119063383,A,924,Incorrect
2,relearn,15,219,D,75.66505536886923,31.41756479246677,3.7832527684434614,0.4935059537284746,C,1021,Incorrect
2,relearn,15,220,C,60.06619201594,70.13886368213322,3.003309600797,1.1017386943746283,C,845,Correct
2,relearn,15,221,C,63.03840674932869,46.13368721666582,3.1519203374664344,0.7246662642144334,C,462,Correct
2,relearn,15,222,A,16.502236210125595,56.62085399175924,0.8251118105062798,0.8893982947024557,B,1245,Incorrect
2,relearn,15,223,A,15.765889534623001,61.8498329212239,0.7882944767311502,0.9715349036553657,A,574,Correct
2,relearn,15,224,B,47.204919604715585,74.05631781137576,2.3602459802357796,1.1632739199406454,C,1184,Incorrect
2,relearn,15,225,A,18.251852903271782,60.19366467899404,0.9125926451635891,0.9455198737408755,A,815,Correct
2,relearn,15,226,A,11.947312860092484,73.31059077838526,0.5973656430046241,1.1515600670985138,A,494,Correct
2,relearn,15,227,D,67.44312498986747,22.809063967641087,3.3721562494933734,0.3582839389800045,C,606,Incorrect
2,relearn,15,228,D,55.7349877640532,35.101320729662945,2.7867493882026597,0.5513702566780411,D,571,Correct
2,relearn,15,229,C,89.30474956924908,29.105041113573282,4.465237478462455,0.45718091672415356,D,766,Incorrect
2,relearn,15,230,D,51.98532181812093,48.34417798728483,2.5992660909060463,0.7593885720434571,C,607,Incorrect
2,relearn,15,231,C,57.40821160088046,62.08367124573302,2.870410580044023,0.9752080274673935,C,652,Correct
2,relearn,15,232,D,56.05209359203145,37.29978101054987,2.8026046796015724,0.5859035900162577,C,1356,Incorrect
2,relearn,15,233,A,9.150684636776322,50.54912524718695,0.4575342318388161,0.7940238026097642,A,640,Correct
2,relearn,15,234,B,72.09499022349155,73.93082968942711,3.6047495111745773,1.161302757130512,C,669,Incorrect
2,relearn,15,235,A,31.085054767658452,24.296432091311754,1.5542527383829228,0.3816474628325415,D,735,Incorrect
2,relearn,15,236,D,40.69943886710374,14.39824559148926,2.034971943355187,0.22616711287402144,D,878,Correct
2,relearn,15,237,A,36.15713323556595,72.30747168613676,1.8078566617782974,1.1358031092440963,C,635,Incorrect
2,relearn,15,238,B,31.5834408776265,66.09231351322882,1.5791720438813253,1.0381756329595653,C,2816,Incorrect
2,relearn,15,239,B,39.03884090484298,98.63173670560806,1.9519420452421488,1.5493036972257055,B,764,Correct
2,relearn,15,240,B,57.62351360037742,68.75184820800769,2.881175680018871,1.0799515062549878,C,622,Incorrect
2,relearn,15,241,A,11.492610305218415,73.12915174834083,0.5746305152609207,1.1487100294792034,A,1533,Correct
2,relearn,15,242,C,91.37837747011632,51.66074635669531,4.568918873505816,0.8114851061657984,C,1038,Correct
2,relearn,15,243,C,68.74035255187275,38.26068629465845,3.4370176275936375,0.6009974549230134,C,720,Correct
2,relearn,15,244,D,38.25771741839568,35.79333915391938,1.912885870919784,0.5622404566670052,B,2619,Incorrect
2,relearn,15,245,A,11.964644015658841,57.87692109742537,0.598232200782942,0.9091285506603383,A,636,Correct
2,relearn,15,246,B,55.09931502599168,101.17152384288869,2.7549657512995838,1.5891985802865185,B,1039,Correct
2,relearn,15,247,D,29.839539877854143,29.822683898124176,1.4919769938927072,0.46845362322338757,A,2076,Incorrect
2,relearn,15,248,D,68.0078034075031,10.580028850449004,3.400390170375155,0.1661907045566933,D,4479,Correct
2,relearn,15,249,C,85.05189036393722,54.14588406214858,4.252594518196861,0.8505215579588534,C,924,Correct
2,relearn,15,250,C,55.28277631274349,60.36297229605967,2.764138815637175,0.9481793515707264,C,815,Correct
2,relearn,15,251,D,65.05908711005608,15.182538862022046,3.2529543555028044,0.23848676275885,D,2253,Correct
2,relearn,15,252,D,39.6392567136074,26.87947805182797,1.9819628356803702,0.4222218538997542,C,3852,Incorrect
2,relearn,15,253,A,20.132977206603,58.21661212998155,1.00664886033015,0.9144644049221824,A,861,Correct
2,relearn,15,254,D,31.307049037193025,43.326117870214375,1.5653524518596513,0.6805650680481546,B,6447,Incorrect
2,relearn,15,255,B,73.52279028641544,77.92185124479276,3.6761395143207722,1.2239935771237882,B,2269,Correct
2,relearn,15,256,B,29.29235774066137,73.25261985494902,1.4646178870330684,1.1506494619625682,A,1070,Incorrect
2,relearn,15,257,C,78.59481946793413,55.13104938666357,3.9297409733967066,0.8659964986891918,C,1712,Correct
2,relearn,15,258,B,67.82065083932903,81.34969605609577,3.3910325419664513,1.277838037507965,C,1852,Incorrect
2,relearn,15,259,B,43.820756287041455,53.904418667413125,2.191037814352073,0.846728628407868,C,524,Incorrect
2,relearn,15,260,A,23.609018661692218,61.03662619160529,1.180450933084611,0.9587610822172676,A,910,Correct
2,relearn,15,261,B,74.79644207150389,67.9285085298442,3.7398221035751944,1.0670185168333506,C,700,Incorrect
2,relearn,15,262,D,25.776750331498402,16.447399272532326,1.2888375165749202,0.25835514362622836,A,2318,Incorrect
2,relearn,15,263,C,57.859499201967424,40.727356681976005,2.892974960098371,0.639743822761135,C,2269,Correct
2,relearn,15,264,A,21.15604911749198,72.6353064181563,1.0578024558745989,1.1409527251726168,A,1230,Correct
2,relearn,15,265,A,47.50253520570922,48.96455551415008,2.375126760285461,0.7691334394477173,C,764,Incorrect
2,relearn,15,266,A,17.74330613844132,38.77906272142444,0.8871653069220659,0.6091400927936241,A,829,Correct
2,relearn,15,267,D,28.94466526345731,39.99358164194374,1.4472332631728653,0.6282177113853704,A,2304,Incorrect
2,relearn,15,268,B,39.404955660695684,90.4788291940566,1.9702477830347842,1.4212381255072695,B,1181,Correct
2,relearn,15,269,B,46.058533670874404,99.56481018431938,2.30292668354372,1.5639603811555998,B,861,Correct
2,relearn,15,270,C,78.92256459250733,31.89571639484164,3.9461282296253666,0.50101674153509,C,879,Correct
2,relearn,15,271,C,86.444088169613,34.33303402618702,4.3222044084806495,0.5393020373605877,C,910,Correct
2,relearn,15,272,A,4.267194915291146,35.64480977490791,0.2133597457645573,0.5599073626372818,A,638,Correct
2,relearn,15,273,C,82.08973393783812,70.48126002307451,4.104486696891906,1.107117043521214,C,604,Correct
2,relearn,15,274,B,30.20753784836132,66.6668689507643,1.5103768924180658,1.047200728667773,B,1340,Correct
2,relearn,15,275,C,88.7715086041006,59.02201578608493,4.438575430205031,0.9271156559681261,C,737,Correct
2,relearn,15,276,C,81.55827560527683,26.93754617773084,4.077913780263842,0.4231339858884751,D,684,Incorrect
2,relearn,15,277,D,41.670733585676516,21.602881739394462,2.0835366792838257,0.3393372728442537,D,796,Correct
2,relearn,15,278,D,28.47959907916983,20.458005281904374,1.4239799539584914,0.32135359550365983,D,816,Correct
2,relearn,15,279,A,31.80566976059172,42.09631450568102,1.590283488029586,0.6612473619712647,D,1645,Incorrect
2,relearn,15,280,A,27.08801810090798,59.42489691985591,1.3544009050453991,0.9334440980187503,C,1358,Incorrect
2,relearn,15,281,B,64.78790642251636,71.67618682034012,3.239395321125818,1.1258869097605502,C,747,Incorrect
2,relearn,15,282,A,27.80103208265437,47.524149606163405,1.3900516041327184,0.7465075963541262,B,2110,Incorrect
2,relearn,15,283,B,54.855189376054106,67.30351329451403,2.742759468802705,1.0572011146341411,C,640,Incorrect
2,relearn,15,284,C,73.96218994472045,47.487577783471046,3.6981094972360222,0.7459331275066325,C,1006,Correct
2,relearn,15,285,D,32.06149552875292,27.798663532098544,1.603074776437646,0.4366603856602764,D,1918,Correct
2,relearn,15,286,A,39.95977203656393,64.84844835435229,1.9979886018281967,1.0186370447336512,B,3117,Incorrect
2,relearn,15,287,D,56.796071323130334,-0.2832606341331996,2.8398035661565166,-0.00444944763622023,D,735,Correct
2,relearn,15,288,C,91.90034150867359,59.51921232296399,4.595017075433679,0.9349256009063737,C,797,Correct
2,relearn,15,289,D,74.36135030335448,27.4966454288537,3.718067515167724,0.43191629638825074,C,2812,Incorrect
2,relearn,15,290,A,1.9874202218612318,52.23684665660077,0.0993710110930616,0.8205344685153675,A,752,Correct
2,relearn,15,291,C,72.32423987530792,46.23218270738663,3.616211993765396,0.7262134277647345,C,1070,Correct
2,relearn,15,292,D,69.25400224082529,20.16356580737947,3.462700112041264,0.3167285510531884,D,1117,Correct
2,relearn,15,293,B,67.8345169868577,82.6145420969494,3.3917258493428846,1.297706192657305,B,1710,Correct
2,relearn,15,294,A,19.5612824774066,45.70401726389935,0.9780641238703299,0.7179170243790364,A,940,Correct
2,relearn,15,295,C,73.99311091669398,26.26980265524703,3.699655545834699,0.4126450951648885,C,4301,Correct
2,relearn,15,296,C,78.86559432151324,53.2200411042905,3.9432797160756623,0.8359784507849294,C,607,Correct
2,relearn,15,297,C,52.6240924498651,41.62115606654986,2.631204622493255,0.6537835906629365,C,2303,Correct
2,relearn,15,298,A,23.651908737802056,47.15708824497157,1.1825954368901028,0.7407418099754414,A,477,Correct
2,relearn,15,299,D,43.789841456162726,30.839434800884796,2.1894920728081364,0.4844247090566054,D,1948,Correct
2,relearn,15,300,C,87.72510691528439,69.3773863963883,4.386255345764219,1.0897774371407698,C,748,Correct
2,relearn,15,301,D,30.822029373991544,41.41349159438879,1.5411014686995772,0.6505216047621724,D,1393,Incorrect
2,relearn,15,302,B,46.259095590871794,78.35309822076526,2.3129547795435896,1.2307675887817782,C,925,Correct
2,relearn,15,303,A,26.285651797316454,63.24883716732004,1.3142825898658228,0.9935104109647485,A,1116,Correct
2,relearn,15,304,C,74.07410029462133,39.36699323197979,3.7037050147310664,0.6183752836575341,C,829,Correct
2,relearn,15,305,C,53.861703936937744,60.07446530249115,2.6930851968468867,0.9436474943132056,C,542,Incorrect
2,relearn,15,306,C,90.61330808583895,41.976800093603856,4.530665404291948,0.659370033976366,C,575,Correct
2,relearn,15,307,B,73.31061288926543,71.59057143378712,3.6655306444632716,1.1245420664134045,C,1118,Incorrect
2,relearn,15,308,D,27.16964688542622,23.364813185441303,1.358482344271311,0.36701362727940173,A,876,Incorrect
2,relearn,15,309,C,87.39288013964685,41.7344846185122,4.369644006982343,0.6555637513943708,C,640,Incorrect
2,relearn,15,310,D,64.40256955257335,43.717837040099084,3.220128477628668,0.6867181783800551,C,891,Correct
2,relearn,15,311,B,61.353538625256135,95.96126917036544,3.067676931262807,1.5073560912738637,B,734,Incorrect
2,relearn,15,312,C,74.01584188614855,47.19564860724333,3.7007920943074275,0.741347514729605,C,559,Incorrect
2,relearn,15,313,C,92.85427125532843,30.634421607402025,4.642713562766421,0.4812043693439331,C,1839,Incorrect
2,relearn,15,314,C,91.6292109532587,59.720866623323275,4.581460547662935,0.9380931792492414,C,574,Incorrect
2,relearn,15,315,B,41.9851655754696,74.38790512081655,2.09925827877348,1.1684824812174592,B,1947,Incorrect
2,relearn,15,316,A,11.217275178122524,53.66086402831121,0.5608637589061262,0.8429028810831165,A,589,Incorrect
2,relearn,15,317,C,68.89964688229534,53.2768192523081,3.444982344114767,0.8368703198484119,C,527,Incorrect
2,relearn,15,318,D,64.99092902555336,4.294679615760096,3.2495464512776677,0.06746066965196876,D,1102,Incorrect
2,relearn,15,319,C,78.58636210944984,40.9957041649247,3.929318105472492,0.6439590151663397,C,541,Correct
2,relearn,15,320,C,92.36836372813048,39.885042084088326,4.618418186406524,0.6265127759974581,C,511,Incorrect
2,relearn,15,321,D,59.49906069570463,1.1524532986311833,2.9749530347852318,0.01810269408292525,D,556,Correct
2,relearn,15,322,D,45.38999125291121,2.824863529288681,2.2694995626455605,0.04437285255503527,D,526,Incorrect
2,relearn,15,323,A,18.31788227988288,53.02272928169994,0.915894113994144,0.8328790839233448,A,687,Correct
2,relearn,15,324,D,73.84059176284009,24.3975241186275,3.692029588142004,0.3832354126842997,C,654,Correct
2,relearn,15,325,B,38.656281084655625,80.23339989410894,1.9328140542327814,1.2603032983993236,B,1084,Incorrect
2,relearn,15,326,B,27.046407057874774,73.44650455480922,1.3523203528937386,1.1536949957061897,A,1099,Correct
2,relearn,15,327,D,48.97920674081574,25.31434951877202,2.4489603370407873,0.39763687239289236,C,640,Incorrect
2,relearn,15,328,D,42.168076139475716,1.8403493975859604,2.1084038069737856,0.028908140737472273,D,574,Correct
2,relearn,15,329,B,45.79161807088025,65.40800627811088,2.2895809035440124,1.0274265600463408,C,637,Incorrect
2,relearn,15,330,D,29.518439156226545,41.49240189134545,1.4759219578113272,0.6517611248082306,C,1102,Incorrect
2,relearn,15,331,D,63.43106438151635,44.89626113426253,3.1715532190758178,0.7052288207652406,C,1067,Incorrect
2,relearn,15,332,C,66.08344177401484,52.214091338544485,3.304172088700742,0.820177028815189,C,2942,Incorrect
2,relearn,15,333,C,67.96647171307049,65.50198016733707,3.3983235856535248,1.0289026984464522,C,2765,Incorrect
2,relearn,15,334,C,85.49433924191553,33.831668282099116,4.274716962095777,0.5314266026686469,C,1084,Correct
2,relearn,15,335,D,46.10331345655014,1.5412443865303267,2.305165672827507,0.024209810210550912,D,512,Correct
2,relearn,15,336,C,72.30167919549973,28.176701974364857,3.6150839597749864,0.4425985996252683,D,2989,Incorrect
2,relearn,15,337,B,25.410599534867774,66.92038913895539,1.2705299767433886,1.0511830144715621,A,700,Incorrect
2,relearn,15,338,C,83.52584898236087,51.957608674064296,4.176292449118043,0.8161482085426686,C,846,Incorrect
2,relearn,15,339,B,59.75021959229181,75.30901838071344,2.987510979614591,1.1829512944695402,B,1534,Correct
2,relearn,15,340,D,52.20254020996836,22.9913020118877,2.610127010498418,0.3611465274850532,D,1133,Incorrect
2,relearn,15,341,D,39.71079804532716,35.32797039940268,1.9855399022663578,0.5549304613650056,C,974,Correct
2,relearn,15,342,A,26.502235160365963,60.55369828165913,1.325111758018298,0.9511752683467659,A,2189,Incorrect
2,relearn,15,343,B,69.66818865738578,74.70189840037595,3.483409432869289,1.1734146761191613,C,619,Incorrect
2,relearn,15,344,C,54.27636652331167,47.70178031793158,2.7138183261655837,0.7492978130498402,C,686,Correct
2,relearn,15,345,D,29.958192174351268,15.926201332912392,1.4979096087175634,0.2501681855353477,A,830,Incorrect
2,relearn,15,346,A,2.719486341219195,41.14778919701895,0.13597431706095975,0.646347961264081,A,592,Correct
2,relearn,15,347,C,101.6003640868252,47.613567235066476,5.08001820434126,0.7479121651844425,C,1020,Incorrect
2,relearn,15,348,C,60.44279551356736,45.02535316147073,3.0221397756783683,0.707256593586812,B,1390,Incorrect
2,relearn,15,349,C,50.86250510505792,40.47820255389215,2.543125255252896,0.6358301188691359,D,655,Incorrect
2,relearn,15,350,C,82.22845039887623,44.15603138845736,4.111422519943812,0.6936013191082898,A,523,Incorrect
2,relearn,15,351,C,65.5955153896388,30.371239606196195,3.2797757694819403,0.4770703161362066,D,782,Incorrect
2,relearn,15,352,C,89.8992506092224,46.00070416890442,4.4949625304611205,0.7225773713849375,C,1103,Incorrect
2,relearn,15,353,A,19.9666409259012,72.77805426551825,0.99833204629506,1.143195003115557,A,1502,Incorrect
2,relearn,15,354,C,85.92710460107915,32.73406859730569,4.296355230053957,0.5141855471369995,C,542,Correct
2,relearn,15,355,D,41.41063418150403,19.208165415287315,2.0705317090752016,0.3017211567880208,D,1132,Incorrect
2,relearn,15,356,C,59.4752386924397,71.77423635143103,2.973761934621985,1.127427068193366,B,862,Incorrect
2,relearn,15,357,A,29.810033936260773,30.92648518159633,1.4905016968130385,0.48579209323928313,D,655,Correct
2,relearn,15,358,C,72.76480283954302,46.993487347947834,3.638240141977151,0.738171973094389,C,395,Correct
2,relearn,15,359,C,83.16772574473161,68.89688492242378,4.15838628723658,1.0822297376375396,C,447,Incorrect
2,relearn,15,360,A,36.72686212953536,48.967067712469614,1.8363431064767681,0.7691729009666426,C,1276,Incorrect
2,relearn,15,361,B,50.36696045437023,70.72944641171175,2.5183480227185115,1.1110155461975328,C,574,Incorrect
2,relearn,15,362,C,56.479539234150614,34.76642812400841,2.823976961707531,0.5461097759297119,C,1659,Correct
2,relearn,15,363,B,44.78158777823288,76.32370193421062,2.239079388911644,1.1988899064564658,B,1005,Incorrect
2,relearn,15,364,A,17.247709169908063,36.45619821793046,0.8623854584954032,0.5726526224963181,D,752,Correct
2,relearn,15,365,A,39.0160115448854,28.453523843552873,1.95080057724427,0.44694690737823856,D,571,Incorrect
2,relearn,15,366,A,43.407920919161626,67.93927081452728,2.170396045958081,1.0671875704058318,C,495,Incorrect
2,relearn,15,367,A,24.159142434949096,52.71402477628029,1.207957121747455,0.8280299648915626,A,1296,Correct
2,relearn,15,368,D,42.362514950594594,46.74474635398849,2.1181257475297297,0.7342647586980424,C,509,Correct
2,relearn,15,369,A,40.1749167311621,61.70512831210047,2.0087458365581052,0.9692618889705519,C,670,Incorrect
2,relearn,15,370,B,50.932788371275905,77.40971926083063,2.546639418563795,1.215949026731369,B,797,Incorrect
2,relearn,15,371,C,98.18528023488486,43.78908010670037,4.909264011744243,0.6878372618533242,C,621,Incorrect
2,relearn,15,372,B,54.62286533813847,91.00055065782104,2.7311432669069236,1.4294333070961818,B,894,Correct
2,relearn,15,373,A,20.39739923598493,73.81877287982749,1.0198699617992466,1.1595425728813975,A,719,Incorrect
2,relearn,15,374,D,27.069739655554066,14.250568969776198,1.3534869827777032,0.22384741392461788,D,1981,Correct
2,relearn,15,375,A,20.091022703162217,69.31133818248644,1.004551135158111,1.0887399542228857,A,2573,Incorrect
2,relearn,15,376,D,67.40614778709865,23.2095038738034,3.3703073893549322,0.364574034317023,D,1088,Incorrect
2,relearn,15,377,A,8.278269007460043,36.64831318739565,0.41391345037300215,0.5756703573799006,A,699,Correct
2,relearn,15,378,B,31.535353678487848,60.15452545457842,1.5767676839243925,0.9449050762414188,C,685,Incorrect
2,relearn,15,379,D,62.87624501851589,45.214004275119166,3.1438122509257944,0.7102199183504593,C,623,Correct
2,relearn,15,380,B,58.372249544462285,74.47661591296348,2.9186124772231143,1.1698759470819737,C,541,Incorrect
2,relearn,15,381,C,82.90906124009558,64.69475817143382,4.145453062004779,1.0162228849857238,C,652,Incorrect
2,relearn,15,382,D,32.80372802548206,26.08517079049588,1.640186401274103,0.4097449046152846,D,959,Correct
2,relearn,15,383,B,75.00876831238507,77.65445191534997,3.7504384156192536,1.2197932782790266,C,1582,Incorrect
2,relearn,15,384,A,3.274877537381961,60.27855985945465,0.16374387686909805,0.9468534041171768,A,540,Correct
2,relearn,15,385,A,31.45684484524285,64.27785416690797,1.5728422422621424,1.009674172196371,D,1548,Incorrect
2,relearn,15,386,C,82.86236294325063,39.27516616588895,4.143118147162531,0.6169328674763755,C,3054,Correct
2,relearn,15,387,A,30.131270127538563,50.27846529618768,1.506563506376928,0.789772286041363,C,2529,Correct
2,relearn,15,388,B,54.79962830965537,68.38823967950738,2.7399814154827684,1.0742399568453918,B,3020,Incorrect
2,relearn,15,389,A,20.76127591186881,62.566013426284876,1.0380637955934404,0.9827846407220846,A,924,Incorrect
2,relearn,15,390,A,9.455257742146829,49.410512953685014,0.47276288710734143,0.7761385225270008,A,766,Incorrect
2,relearn,15,391,C,74.44935196929973,72.89411026319667,3.7224675984649864,1.145018006464115,C,703,Incorrect
2,relearn,15,392,C,81.25224377179538,57.59995199878438,4.062612188589769,0.9047779302325286,C,638,Incorrect
2,relearn,15,393,A,22.655160831449525,25.399743724263807,1.1327580415724763,0.3989782414360531,D,906,Incorrect
2,relearn,15,394,B,46.77112899910306,89.75123453803927,2.338556449955153,1.4098090953765934,B,1056,Incorrect
2,relearn,15,395,D,33.45316742933685,30.012464442252607,1.6726583714668424,0.47143468903952834,D,1084,Incorrect
2,relearn,15,396,C,77.92939205670173,62.73973884598953,3.8964696028350865,0.9855135132335143,C,829,Incorrect
2,relearn,15,397,A,21.5835473045578,39.86113994804372,1.07917736522789,0.626137322122444,A,878,Incorrect
2,relearn,15,398,D,40.245762720414696,47.11216647528881,2.0122881360207345,0.7400361804673333,C,973,Incorrect
2,relearn,15,399,B,36.1261732539342,90.5481382157406,1.80630866269671,1.4223268290740192,B,753,Incorrect
2,relearn,15,400,D,64.48722884438277,2.5372204249069874,3.2243614422191387,0.039854565237128825,D,671,Incorrect
2,relearn,15,401,A,19.428232756571507,45.463764166719464,0.9714116378285753,0.7141431375535237,A,1322,Correct
2,relearn,15,402,A,4.846105512526041,56.805912200659805,0.24230527562630205,0.8923051822502982,A,574,Correct
2,relearn,15,403,D,68.61957602947074,35.287155240074824,3.430978801473537,0.5542893383415083,D,1263,Incorrect
2,relearn,15,404,D,73.76618848287364,26.51043413970405,3.6883094241436822,0.4164249256838514,B,813,Incorrect
2,relearn,15,405,D,41.26252990983172,6.897753422648805,2.063126495491586,0.10834965739433668,D,2558,Correct
2,relearn,15,406,D,40.17397018475247,44.35005656769033,2.0086985092376235,0.6966490594967385,A,1437,Incorrect
2,relearn,15,407,C,78.3840515476182,30.248896375830054,3.9192025773809096,0.47514855316753307,C,1469,Incorrect
2,relearn,15,408,A,27.944101244270186,39.00897865379541,1.3972050622135095,0.6127516038140236,C,2269,Correct
2,relearn,15,409,D,71.85221519432781,29.338319906316485,3.5926107597163908,0.4608452514317553,C,1247,Correct
2,relearn,15,410,A,24.270652295681735,37.83616181582806,1.2135326147840868,0.5943290400032004,A,1323,Incorrect
2,relearn,15,411,C,64.75830981226886,53.41393577394723,3.2379154906134433,0.8390241411337483,C,687,Incorrect
2,relearn,15,412,B,42.79413255324204,76.29917406334215,2.1397066276621017,1.1985046235618229,B,799,Correct
2,relearn,15,413,D,33.957962173436016,30.762245342010683,1.6978981086718008,0.4832122198719379,C,989,Incorrect
2,relearn,15,414,C,82.99179928449104,43.78226262298318,4.1495899642245515,0.6877301730695148,C,942,Correct
2,relearn,15,415,C,77.25506008618453,54.27839260673411,3.8627530043092264,0.8526029973098921,C,603,Incorrect
2,relearn,15,416,B,47.656673713774495,76.13072904250318,2.3828336856887247,1.1958586953618155,C,686,Incorrect
2,relearn,15,417,A,30.193632226985127,57.60000840375173,1.5096816113492562,0.904778816239684,C,608,Incorrect
2,relearn,15,418,C,86.38133950857626,47.1903651850861,4.319066975428814,0.7412645229284303,C,749,Correct
2,relearn,15,419,D,43.04684669829906,6.8298184558930295,2.1523423349149535,0.10728253743192763,D,603,Incorrect
2,relearn,15,420,A,27.357340894529116,64.80570041832178,1.3678670447264556,1.0179655617247032,A,897,Incorrect
2,relearn,15,421,D,54.63546763204156,11.015305055364076,2.731773381602078,0.17302800719491143,D,637,Incorrect
2,relearn,15,422,A,14.287966374067883,71.26508269848384,0.7143983187033942,1.1194293013151293,A,717,Incorrect
2,relearn,15,423,A,25.818300062062278,60.370505250723205,1.290915003103114,0.9482976789458801,C,1227,Incorrect
2,relearn,15,424,B,31.235434581935067,75.33229249078616,1.5617717290967534,1.1833168833356567,C,974,Correct
2,relearn,15,425,A,43.41543178167625,55.80396703929568,2.1707715890838126,0.8765666644590913,C,1725,Incorrect
2,relearn,15,426,C,73.7526210407231,29.91702368141787,3.687631052036155,0.4699355090740712,D,1117,Incorrect
2,relearn,15,427,C,81.76082107837411,68.92425046147422,4.088041053918705,1.0826595945197515,C,623,Correct
2,relearn,15,428,B,75.28558199313785,70.91936331316556,3.7642790996568927,1.113998753909532,C,412,Incorrect
2,relearn,15,429,C,65.7939279227861,51.458538916371474,3.289696396139305,0.8083088391206855,C,542,Incorrect
2,relearn,15,430,C,52.694221549576966,63.43705419363971,2.6347110774788485,0.9964669171005804,C,846,Incorrect
2,relearn,15,431,B,52.11509330012013,98.6796957067265,2.605754665006007,1.5500570354536412,B,715,Incorrect
2,relearn,15,432,B,40.576912343780904,55.29444215836955,2.028845617189045,0.8685630663453975,C,511,Incorrect
2,relearn,15,433,A,15.49302649662962,70.65861998743267,0.7746513248314809,1.109903007326557,A,829,Incorrect
2,relearn,15,434,C,89.0657634457711,39.39263316512779,4.453288172288555,0.6187780347856155,C,687,Correct
2,relearn,15,435,A,34.54719382294051,35.1052037771178,1.7273596911470253,0.5514312514448297,B,1258,Incorrect
2,relearn,15,436,D,69.3848045344568,18.52573691341232,3.46924022672284,0.291001594947567,A,735,Incorrect
2,relearn,15,437,D,67.97443600468917,16.04731942155173,3.3987218002344584,0.25207070402277865,D,588,Incorrect
2,relearn,15,438,B,34.869902520402164,73.515203012184,1.7434951260201081,1.1547741085511976,C,830,Incorrect
2,relearn,15,439,B,34.591094844610645,76.53980092237241,1.7295547422305322,1.202284381424752,B,2812,Incorrect
2,relearn,15,440,A,38.657255383389746,69.93039788023192,1.9328627691694873,1.0984641212157393,C,1214,Incorrect
2,relearn,15,441,A,-1.1489494145330355,45.30127547888233,-0.057447470726651774,0.7115907712135208,A,1598,Incorrect
2,relearn,15,442,C,99.57650652827206,45.14593192394302,4.978825326413602,0.7091506403586215,C,635,Correct
2,relearn,15,443,A,37.902506730618576,61.49688772593174,1.8951253365309286,0.9659908534921173,C,543,Incorrect
2,relearn,15,444,B,47.31955660447404,89.83946371093215,2.365977830223702,1.4111949959835564,B,763,Incorrect
2,relearn,15,445,A,-0.03274576722005307,52.166055572808446,-0.0016372883610026533,0.8194224847714595,A,592,Incorrect
2,relearn,15,446,D,60.719256396106154,35.88726236338661,3.0359628198053077,0.5637157989913243,D,1245,Incorrect
2,relearn,15,447,A,14.531477892589038,35.39644993843237,0.7265738946294519,0.55600613544869,A,1262,Correct
2,relearn,15,448,D,39.72676122837906,3.2426048950453854,1.9863380614189532,0.05093471858384442,B,2443,Incorrect
2,relearn,15,449,D,72.1456690703454,12.803911986677427,3.6072834535172706,0.20112337917278048,D,1614,Incorrect
2,relearn,15,450,C,68.6742623496872,70.79474624084041,3.4337131174843596,1.1120412735148895,C,2335,Correct
2,relearn,15,451,B,33.10090532746203,66.61444087766706,1.6550452663731017,1.0463771904213524,C,1277,Incorrect
2,relearn,15,452,B,67.97641901448443,83.49284587591504,3.398820950724222,1.3115025561553977,C,749,Incorrect
2,relearn,15,453,A,38.505527452000194,38.718463605580666,1.9252763726000097,0.60818820410788,D,2187,Correct
2,relearn,15,454,B,51.11737264375296,87.04744735781618,2.555868632187648,1.367338105665298,C,910,Incorrect
2,relearn,15,455,C,76.47774718353143,32.50940854220079,3.823887359176572,0.5106565952436364,B,3197,Incorrect
2,relearn,15,456,C,56.787341653258565,50.90095723620242,2.8393670826629283,0.7995503665697088,C,1408,Correct
2,relearn,15,457,B,43.027248087046026,58.4812761413589,2.151362404352301,0.918621737491246,C,1532,Incorrect
2,relearn,15,458,D,48.484545000167124,43.254312799761465,2.424227250008356,0.6794371566390279,D,1118,Correct
2,relearn,15,459,B,57.567804506975435,85.31422021448996,2.878390225348772,1.3401126373629175,C,2169,Incorrect
2,relearn,15,460,C,52.53092763031525,41.859189278760056,2.6265463815157624,0.6575226076168862,C,718,Incorrect
2,relearn,15,461,C,73.84377613151281,49.59144506075964,3.6921888065756407,0.7789805974189217,C,942,Incorrect
2,relearn,15,462,A,50.25776089288618,54.44051771487861,2.512888044644309,0.8551496525534381,C,1228,Incorrect
2,relearn,15,463,B,76.32071375261359,72.4221731347044,3.8160356876306794,1.1376048353849768,C,1391,Incorrect
2,relearn,15,464,D,44.36186062423357,50.35899373261925,2.2180930312116787,0.7910372237628552,D,1915,Correct
2,relearn,15,465,B,34.48921571363006,92.72962581705772,1.724460785681503,1.4565935561849948,B,908,Correct
2,relearn,15,466,B,49.52995831181753,93.00518888753851,2.4764979155908766,1.4609220907741105,B,1086,Incorrect
2,relearn,15,467,A,6.260762656594977,46.24623549909905,0.31303813282974885,0.7264341685007654,A,653,Incorrect
2,relearn,15,468,A,36.23836908165846,44.45647890578949,1.811918454082923,0.6983207376744892,C,527,Incorrect
2,relearn,15,469,A,29.483722183866064,27.173086961156766,1.4741861091933033,0.4268338518626335,C,783,Incorrect
2,relearn,15,470,C,57.880723006217664,32.93310838946891,2.894036150310883,0.5173120568811597,D,860,Incorrect
2,relearn,15,471,A,32.43968273695397,49.58519532783529,1.6219841368476984,0.7788824268437113,C,797,Incorrect
2,relearn,15,472,D,30.3408644818312,37.905481756329785,1.51704322409156,0.595417915082338,C,637,Incorrect
2,relearn,15,473,B,54.92224862228339,90.08612286888342,2.74611243111417,1.415069508976358,B,860,Correct
2,relearn,15,474,D,59.99409305005784,18.822588390056218,2.9997046525028916,0.2956645270387257,D,673,Incorrect
2,relearn,15,475,B,69.64226179448865,81.99412876896355,3.4821130897244323,1.287960762890357,C,397,Correct
2,relearn,15,476,A,38.54184071454471,66.83853968345727,1.9270920357272356,1.049897326231096,C,492,Correct
2,relearn,15,477,C,55.70083439075289,65.18582863498058,2.7850417195376447,1.0239366017890907,C,544,Correct
2,relearn,15,478,B,56.30133456512442,99.63688103608573,2.815066728256221,1.5650924674478357,B,638,Incorrect
2,relearn,15,479,D,60.24888986590661,33.716790252797445,3.0124444932953303,0.5296221028040821,C,446,Incorrect
2,relearn,15,480,B,37.197556695035985,66.06562286162408,1.8598778347517992,1.0377563771845604,C,621,Incorrect
2,relearn,15,481,C,50.267716377881555,47.387102874217604,2.513385818894078,0.744354871322729,C,510,Incorrect
2,relearn,15,482,A,9.217797707943188,41.159744885391746,0.4608898853971594,0.6465357607778839,A,559,Incorrect
2,relearn,15,483,D,59.51107194756335,35.54895396063344,2.9755535973781675,0.558401663027639,C,1005,Correct
2,relearn,15,484,C,56.04819689772927,65.72768169347738,2.8024098448864634,1.0324480097285842,C,557,Incorrect
2,relearn,15,485,B,31.900335158330385,55.79704037187048,1.5950167579165193,0.876457860621607,C,1134,Incorrect
2,relearn,15,486,C,53.20137773680034,65.57023907144885,2.660068886840017,1.0299749068049506,C,527,Correct
2,relearn,15,487,D,56.759181364390564,25.675019770747014,2.8379590682195284,0.40330226746275755,D,573,Correct
2,relearn,15,488,D,48.20211999826938,11.055741545259927,2.410105999913469,0.17366318209288029,D,475,Incorrect
2,relearn,15,489,A,6.98579439314474,59.084563966819175,0.34928971965723704,0.9280981604935765,A,607,Incorrect
2,relearn,15,490,A,13.43732583872517,71.31730190207234,0.6718662919362585,1.1202495586469792,A,1451,Correct
2,relearn,15,491,A,18.763094321687568,43.92308839904602,0.9381547160843783,0.6899422591870903,C,1599,Incorrect
2,relearn,15,492,C,77.12943580652859,72.11293067324817,3.8564717903264296,1.1327472661595326,C,782,Incorrect
2,relearn,15,493,D,39.30333030941964,32.67244168776878,1.965166515470982,0.5132175139056766,C,1439,Incorrect
2,relearn,15,494,D,66.57091030635036,10.985056790391024,3.3285455153175176,0.17255286855979554,D,1054,Correct
2,relearn,15,495,C,83.31536820390969,47.38411197136864,4.165768410195484,0.7443078903306394,C,923,Correct
2,relearn,15,496,A,37.41360153661601,58.43940282842739,1.8706800768308003,0.9179639930298104,C,700,Correct
2,relearn,15,497,B,50.72669837642369,56.99188664626936,2.5363349188211846,0.8952264620107101,C,750,Correct
2,relearn,15,498,A,33.84081607781813,54.15508083353506,1.6920408038909067,0.8506660205059758,C,1261,Incorrect
2,relearn,15,499,A,35.2198844135689,44.47136662533939,1.760994220678445,0.6985545934263226,B,2413,Incorrect
2,relearn,15,500,D,30.996168210320665,29.374302665618103,1.5498084105160332,0.4614104672931445,D,462,Correct
2,relearn,15,501,B,39.93011993612132,56.84525850804796,1.996505996806066,0.8929232326014809,C,1726,Incorrect
2,relearn,15,502,B,45.22180811076779,92.25459504383949,2.2610904055383894,1.4491317902481375,B,1004,Correct
2,relearn,15,503,D,41.97219503308045,42.11392567184556,2.0986097516540227,0.661523997522483,B,1023,Incorrect
2,relearn,15,504,A,40.105034361236,62.51319141225377,2.0052517180618,0.9819549144659449,B,763,Incorrect
2,relearn,15,505,B,70.91227379957459,67.99321598944762,3.545613689978729,1.0680349392319635,C,1198,Incorrect
2,relearn,15,506,D,34.91859507906491,23.326325903324022,1.7459297539532455,0.36640907046562027,D,829,Incorrect
2,relearn,15,507,C,86.19224703126629,27.721201917898853,4.309612351563314,0.4354436214697515,C,3373,Correct
2,relearn,15,508,D,72.03767653331394,18.9504979865536,3.601883826665697,0.29767372628212474,D,2029,Incorrect
2,relearn,15,509,C,82.41486370238808,56.91622575138872,4.120743185119403,0.8940379834531051,C,589,Correct
2,relearn,15,510,D,34.374557147839994,33.64738319109707,1.7187278573919997,0.5285318592283562,C,1947,Incorrect
2,relearn,15,511,B,27.113745619539966,77.11394489316825,1.3556872809769982,1.2113030138285277,B,1150,Incorrect
2,relearn,15,512,D,46.31122357474629,42.499272467103964,2.3155611787373145,0.6675770108278238,C,687,Correct
2,relearn,15,513,D,57.588156574354095,45.72664795802679,2.8794078287177047,0.7182725064911185,C,831,Incorrect
2,relearn,15,514,C,93.80118750179099,33.328229977117644,4.690059375089549,0.5235186122663196,C,1004,Incorrect
2,relearn,15,515,C,85.04896285760518,32.35555294739514,4.252448142880258,0.5082398372118607,D,1244,Incorrect
2,relearn,15,516,C,86.39437579929908,58.60842312159515,4.319718789964955,0.9206189575864275,C,687,Incorrect
2,relearn,15,517,B,63.76211536684311,90.98990112480402,3.188105768342156,1.4292660246227302,B,924,Incorrect
2,relearn,15,518,D,53.96669260056869,10.487063363888009,2.6983346300284348,0.16473040610860615,D,768,Correct
2,relearn,15,519,B,37.83101773857227,96.87933195859074,1.8915508869286135,1.5217769878289775,B,606,Correct
2,relearn,15,520,C,71.87845816430769,30.446442904038367,3.5939229082153843,0.47825160677634015,C,733,Correct
2,relearn,15,521,D,45.5356385066422,40.9415831481465,2.27678192533211,0.6431088842227636,B,1228,Incorrect
2,relearn,15,522,D,52.34852514174302,51.29780087994948,2.6174262570871507,0.8057839719488066,C,640,Incorrect
2,relearn,15,523,D,70.89297715177415,22.96355613050356,3.5446488575887076,0.3607106961994342,D,1036,Incorrect
2,relearn,15,524,C,71.46897992308044,71.95460132298413,3.573448996154022,1.130260234541347,C,589,Correct
2,relearn,15,525,B,75.1982637240972,83.40492669349544,3.7599131862048605,1.3101215248674025,C,495,Incorrect
2,relearn,15,526,A,40.095012161358596,49.99295279038276,2.00475060806793,0.7852874660876391,D,2479,Incorrect
2,relearn,15,527,A,36.06643321471945,38.334641836285535,1.8033216607359726,0.6021591458543528,B,717,Correct
2,relearn,15,528,A,19.767851040758497,56.79417066047244,0.9883925520379249,0.8921207465683259,B,699,Incorrect
2,relearn,15,529,B,42.647412996482316,54.75694319698185,2.132370649824116,0.860120052403359,B,1709,Incorrect
2,relearn,15,530,D,71.08182549695157,27.234879713387233,3.5540912748475786,0.42780449014489513,D,781,Correct
2,relearn,15,531,B,50.99403312555447,93.34236176502624,2.5497016562777235,1.4662183899486363,B,942,Correct
2,relearn,15,532,A,16.04906433897081,33.689944165136126,0.8024532169485404,0.5292004054452099,D,1360,Incorrect
2,relearn,15,533,B,43.12811298951832,73.62600650051203,2.156405649475916,1.1565146056758147,C,557,Incorrect
2,relearn,15,534,D,29.2012813104656,16.99856979014281,1.46006406552328,0.2670129098712302,D,1165,Incorrect
2,relearn,15,535,D,42.65529937896472,27.0479137713924,2.1327649689482358,0.4248676359956828,D,1325,Incorrect
2,relearn,15,536,A,46.00465945406097,36.68866044301841,2.3002329727030486,0.5763041305891854,B,1904,Incorrect
2,relearn,15,537,C,100.11994458093034,56.529767408763256,5.005997229046517,0.8879675100025517,C,747,Incorrect
2,relearn,15,538,D,47.5732383419602,27.93144287520322,2.37866191709801,0.438746078704507,D,1822,Correct
2,relearn,15,539,B,49.22851890983988,50.34371153786552,2.461425945491994,0.7907971716090103,C,719,Incorrect
2,relearn,15,540,A,45.852926886707465,40.65506458314526,2.292646344335373,0.6386082611281387,B,861,Incorrect
2,relearn,15,541,A,19.18684671885582,68.49016714676563,0.959342335942791,1.0758410297570793,A,1198,Incorrect
2,relearn,15,542,A,23.08253391353174,73.87611224906793,1.154126695676587,1.1604432575872337,C,941,Incorrect
2,relearn,15,543,C,71.83605320066002,60.66163891823134,3.5918026600330006,0.9528707959011612,C,748,Correct
2,relearn,15,544,A,3.8234585714828633,59.851232216451784,0.19117292857414317,0.9401409571975085,A,590,Correct
2,relearn,15,545,C,67.39824296649454,47.83377383433768,3.369912148324727,0.7513711623571546,C,4271,Correct
2,relearn,15,546,C,89.24134026422965,67.95484486612642,4.462067013211482,1.0674322070362843,C,2351,Incorrect
2,relearn,15,547,C,82.49871648020768,47.61965611295763,4.124935824010384,0.7480078090546998,C,1709,Correct
2,relearn,15,548,C,71.38325521564526,24.452661983176142,3.569162760782263,0.384101516235303,D,1550,Incorrect
2,relearn,15,549,A,22.08036106316549,66.93496633240343,1.1040180531582746,1.0514119924907939,A,1676,Incorrect
2,relearn,15,550,D,43.03815389633922,38.633201801565015,2.151907694816961,0.606848914822243,C,638,Incorrect
2,relearn,15,551,A,4.421494272222521,66.06819479074308,0.22107471361112604,1.0377967769526895,A,1244,Correct
2,relearn,15,552,C,67.49844633342704,56.61692345733419,3.3749223166713525,0.8893365540120836,B,2832,Incorrect
2,relearn,15,553,A,34.15272439440814,68.25040346566097,1.7076362197204071,1.0720748306612993,A,1293,Incorrect
2,relearn,15,554,D,60.89370402013288,5.272956034912518,3.044685201006644,0.08282739970991565,D,670,Correct
2,relearn,15,555,D,26.6935434743387,25.650358738507695,1.3346771737169352,0.40291489287419263,A,2108,Correct
2,relearn,15,556,A,48.85530901240149,45.10236568381179,2.4427654506200747,0.7084663034589175,C,685,Incorrect
2,relearn,15,557,C,66.53214455001849,32.59616238484743,3.326607227500924,0.5120193214172832,C,846,Incorrect
2,relearn,15,558,B,23.314707706005674,73.19761427044494,1.1657353853002836,1.1497854362616462,B,1135,Correct
2,relearn,15,559,A,-0.04657487821817696,51.20503114487151,-0.0023287439109088482,0.8043267483578245,A,622,Correct
2,relearn,15,560,C,90.96928137434516,44.95402747805904,4.548464068717258,0.7061362123717199,C,620,Incorrect
2,relearn,15,561,C,78.5088574147412,50.06794665719049,3.92544287073706,0.7864654669927764,C,1152,Correct
2,relearn,15,562,B,73.60484162246391,84.21879695747342,3.6802420811231955,1.3229057690788446,B,732,Incorrect
2,relearn,15,563,A,24.065587725479652,60.59507101539957,1.2032793862739826,0.9518251497286555,C,2366,Incorrect
2,relearn,15,564,A,34.988670754898024,38.09992500922875,1.749433537744901,0.5984722225565753,A,2188,Correct
2,relearn,15,565,B,39.661936212369966,89.20175739090504,1.9830968106184983,1.4011779285328314,B,1359,Correct
2,relearn,15,566,D,38.42104979053887,9.964957013211022,1.9210524895269436,0.15652917873020916,D,809,Incorrect
2,relearn,15,567,A,20.808210810863514,57.78905290741811,1.0404105405431756,0.907748320359283,A,862,Incorrect
2,relearn,15,568,B,50.804040731204914,51.022176715738865,2.540202036560246,0.8014544777016273,C,671,Incorrect
2,relearn,15,569,A,15.099428633361693,74.44501911810868,0.7549714316680847,1.1693796257890097,A,1549,Incorrect
2,relearn,15,570,A,23.406069812770014,23.617226048138516,1.1703034906385006,0.3709785192550073,D,1710,Incorrect
2,relearn,15,571,B,67.12909025366599,87.09299698586234,3.3564545126832996,1.3680535975495156,B,1885,Incorrect
2,relearn,15,572,B,29.49636023603806,65.06586610142216,1.474818011801903,1.0220522347184249,A,2142,Incorrect
2,relearn,15,573,D,63.977398698799696,45.01482134589741,3.1988699349399847,0.7070911602146416,C,588,Incorrect
2,relearn,15,574,A,33.97820333839404,32.13655261016512,1.698910166919702,0.5047997879589832,C,684,Incorrect
2,relearn,15,575,B,32.918801171202986,54.42928963092541,1.6459400585601491,0.8549732822231318,C,511,Incorrect
2,relearn,15,576,B,41.67377135133722,78.72368536838641,2.083688567566861,1.2365887580841852,B,924,Incorrect
2,relearn,15,577,C,94.3934701076099,67.44884006287151,4.719673505380495,1.0594839021733502,C,814,Correct
2,relearn,15,578,A,49.87449743885625,50.71471392136076,2.4937248719428124,0.7966248634212749,D,1693,Incorrect
2,relearn,15,579,C,100.45780797725843,50.927504014621654,5.022890398862922,0.7999673623900005,C,1168,Incorrect
2,relearn,15,580,D,58.14082024344444,48.94510262180657,2.9070410121722214,0.7688278741293303,B,940,Incorrect
2,relearn,15,581,A,14.752740612032664,72.42513425892064,0.7376370306016332,1.1376513486153974,A,750,Correct
2,relearn,15,582,A,10.933802859735744,58.2402137646134,0.5466901429867872,0.9148351385320429,A,737,Incorrect
2,relearn,15,583,A,6.587129877069202,51.080169708784304,0.3293564938534601,0.8023654295061833,A,635,Incorrect
2,relearn,15,584,B,63.00574774155805,77.731748304191,3.1502873870779022,1.2210074471156867,B,812,Correct
2,relearn,15,585,C,62.95922113890331,71.91737596307978,3.1479610569451655,1.1296754999553331,B,512,Incorrect
2,relearn,15,586,A,12.095383298896444,61.23231530135905,0.6047691649448221,0.9618349595652174,A,1498,Incorrect
2,relearn,15,587,C,56.09417030071799,68.27815031411353,2.8047085150359,1.0725106771375936,C,1502,Incorrect
2,relearn,15,588,D,70.21538321283126,38.78616394553337,3.510769160641563,0.6092516385610846,C,1870,Incorrect
2,relearn,15,589,D,29.576708784089973,35.29257969442524,1.478835439204499,0.5543745454711932,A,2074,Correct
2,relearn,15,590,C,83.63632341131652,50.70899191579786,4.181816170565827,0.796534982368074,C,1121,Incorrect
2,relearn,15,591,B,36.679755398444584,76.57829584863839,1.8339877699222291,1.2028890583125407,A,2333,Incorrect
2,relearn,15,592,D,26.931638894793736,23.958927117689235,1.3465819447396867,0.37634594710412894,D,829,Correct
2,relearn,15,593,B,56.62828037095677,52.497307104882,2.8314140185478385,0.8246257716697228,C,572,Incorrect
2,relearn,15,594,B,45.84187659456886,68.5510973208074,2.292093829728443,1.0767981186928373,C,1071,Incorrect
2,relearn,15,595,C,91.98060675087882,34.116081959179795,4.59903033754394,0.5358941622611326,C,716,Correct
2,relearn,15,596,C,70.78757932924688,58.44152450551985,3.5393789664623445,0.9179973202556451,C,2079,Incorrect
2,relearn,15,597,A,35.00808577506226,71.36342744839848,1.750404288753113,1.1209740970343842,C,2829,Incorrect
2,relearn,15,598,C,87.35803842344359,68.552272234301,4.367901921172179,1.0768165741908378,C,556,Incorrect
2,relearn,15,599,D,48.05944524058387,30.573959215931435,2.4029722620291936,0.4802546283196208,C,1070,Incorrect
2,relearn,15,600,B,46.877552603476666,99.30246999511878,2.343877630173833,1.5598395510999303,B,735,Correct
2,relearn,15,601,C,77.0134385706294,74.64243847155491,3.8506719285314706,1.1724806817413254,C,599,Correct
2,relearn,15,602,C,93.61721162521124,35.63451509944616,4.6808605812605615,0.5597456542532732,C,718,Correct
2,relearn,15,603,C,83.51551896724843,26.055766556990353,4.175775948362421,0.4092830239954576,C,1341,Correct
2,relearn,15,604,A,17.44349981090153,51.92370953266145,0.8721749905450764,0.8156157220746977,A,1581,Correct
2,relearn,15,605,D,47.808487490101484,13.16272402598006,2.390424374505074,0.2067595855062441,D,748,Correct
2,relearn,15,606,B,37.002391336148506,52.704770565910145,1.850119566807425,0.8278846000949943,C,463,Incorrect
2,relearn,15,607,A,37.52147629604204,59.515092560905416,1.876073814802102,0.934860887835285,B,2045,Incorrect
2,relearn,15,608,B,53.13013357113313,67.29326113159314,2.6565066785566565,1.057040074035563,C,780,Incorrect
2,relearn,15,609,D,40.69524611214122,37.028952107243505,2.0347623056070607,0.5816494195512224,C,1149,Incorrect
2,relearn,15,610,D,54.460682861898995,48.26145211137326,2.72303414309495,0.7580891170233293,C,1101,Incorrect
2,relearn,15,611,A,16.2528161458114,26.165372317280557,0.8126408072905701,0.41100470725205174,A,925,Correct
2,relearn,15,612,A,26.70431455125119,31.807563431377353,1.3352157275625596,0.4996320380230322,C,1357,Incorrect
2,relearn,15,613,C,65.11072616602704,44.38325760458403,3.2555363083013513,0.6971705801647226,C,704,Correct
2,relearn,15,614,B,54.94334233246925,66.92284046365054,2.7471671166234626,1.0512215197898316,C,910,Incorrect
2,relearn,15,615,B,66.65281401824296,60.96396963484241,3.3326407009121484,0.9576197956924607,C,795,Incorrect
2,relearn,15,616,A,46.41613144179124,64.12160606567859,2.3208065720895616,1.007219832761573,B,1007,Incorrect
2,relearn,15,617,B,65.6964542026198,86.76008442986382,3.28482271013099,1.3628242193484519,B,814,Correct
2,relearn,15,618,C,65.73148494475318,45.95001399418182,3.2865742472376587,0.7217811319823488,C,430,Correct
2,relearn,15,619,B,73.90880298655279,70.71265741143317,3.6954401493276396,1.1107518251978514,C,939,Incorrect
2,relearn,15,620,C,77.95750940593948,65.8690608621194,3.8978754702969742,1.0346687885164663,C,478,Correct
2,relearn,15,621,C,76.98971522757309,76.37592378514564,3.849485761378654,1.1997102053727375,C,1261,Correct
2,relearn,15,622,C,83.44573826415069,57.577476079565024,4.172286913207534,0.9044248793190176,C,445,Correct
2,relearn,15,623,D,57.99143753674118,33.53337671598277,2.8995718768370593,0.5267410497049525,D,910,Correct
2,relearn,15,624,C,78.45903928646149,49.127926004013105,3.922951964323074,0.7716996571015529,C,397,Correct
2,relearn,15,625,B,39.465186436105036,60.40788279836819,1.9732593218052517,0.9488848040913338,C,2990,Incorrect
2,relearn,15,626,A,8.55046198758982,70.9491239354057,0.427523099379491,1.1144662326705115,A,461,Correct
2,relearn,15,627,B,36.14965886344402,66.03122631197584,1.8074829431722008,1.0372160774461416,C,991,Incorrect
2,relearn,15,628,A,6.338085156619822,68.17708480114383,0.31690425783099113,1.070923143772209,A,574,Correct
2,relearn,15,629,A,12.059470128170949,32.84085133494533,0.6029735064085474,0.5158628864574939,A,1004,Correct
2,relearn,15,630,B,66.48508441656611,75.54418616865257,3.3242542208283057,1.186645301444293,C,960,Incorrect
2,relearn,15,631,C,89.48158186621899,52.3829444081761,4.47407909331095,0.8228293666306428,C,637,Correct
2,relearn,15,632,B,43.31640792284085,87.60044573059311,2.165820396142043,1.3760245837921132,B,1115,Correct
2,relearn,15,633,D,57.31798899585766,5.766024195273001,2.865899449792883,0.09057249626145329,D,702,Correct
2,relearn,15,634,D,67.77238673469134,21.98358590778655,3.3886193367345667,0.34531735993731166,C,848,Incorrect
2,relearn,15,635,D,75.22956984354718,22.10741611629377,3.761478492177359,0.3472624803040055,D,592,Correct
2,relearn,15,636,D,37.81769469942718,9.57164786881491,1.8908847349713591,0.1503510931370866,D,601,Correct
2,relearn,15,637,B,29.57768846270108,65.50281442069777,1.478884423135054,1.0289158028675984,C,1181,Incorrect
2,relearn,15,638,B,36.515365586054024,89.6670491060061,1.8257682793027012,1.4084867137025199,B,751,Correct
2,relearn,15,639,D,76.67083653408055,25.605981795759163,3.8335418267040273,0.4022178214875548,D,1324,Correct
2,relearn,15,640,C,96.5151790405971,53.500080566140525,4.825758952029855,0.8403773003652457,C,686,Correct
2,relearn,15,641,A,30.5104627760202,56.675066965152816,1.52552313880101,0.8902498700971683,B,1756,Incorrect
2,relearn,15,642,B,57.59270787720294,92.0154663689193,2.879635393860147,1.4453755658061778,B,688,Correct
2,relearn,15,643,D,68.0750393770779,17.058491857059288,3.403751968853895,0.26795416349729384,D,860,Correct
2,relearn,15,644,A,5.730251087932036,66.66141111740775,0.2865125543966018,1.0471149972218858,A,765,Correct
2,relearn,15,645,C,54.602884460818004,44.25903017424758,2.7301442230409005,0.6952192202521259,C,576,Correct
2,relearn,15,646,C,59.51670235016007,58.69745163745661,2.9758351175080033,0.9220174142433792,C,638,Correct
2,relearn,15,647,B,60.57112797524512,68.59199806157926,3.028556398762256,1.0774405860265135,B,1293,Correct
2,relearn,15,648,B,42.03119302505039,69.33964165654022,2.1015596512525194,1.0891845441536778,B,1562,Correct
2,relearn,15,649,A,16.685716963598907,61.979689601970044,0.8342858481799453,0.9735746876266238,A,1214,Correct
2,relearn,15,650,D,52.31874331385134,49.67190801321476,2.615937165692567,0.7802445065205174,C,511,Incorrect
2,relearn,15,651,C,90.31618455306867,55.95413530412207,4.515809227653433,0.8789255020469958,C,509,Correct
2,relearn,15,652,C,81.76375431427532,25.409394139397886,4.088187715713766,0.39912982980249967,D,972,Incorrect
2,relearn,15,653,A,33.63665675601109,38.63176241909099,1.6818328378005547,0.6068263050552126,C,684,Incorrect
2,relearn,15,654,B,44.48978505975832,71.10916919336235,2.224489252987916,1.116980217703704,B,1392,Correct
2,relearn,15,655,B,70.82301615270657,64.47358999194346,3.541150807635329,1.0127487833462498,C,732,Incorrect
2,relearn,15,656,A,4.5652934864719015,57.90828999608591,0.22826467432359507,0.909621292168254,A,639,Correct
2,relearn,15,657,D,67.46311847879774,10.624869853018636,3.373155923939887,0.16689506537795504,D,716,Correct
2,relearn,15,658,B,71.99198379495374,88.46096329421664,3.599599189747687,1.3895415620729366,B,783,Correct
2,relearn,15,659,D,56.20401979232969,31.654956434912535,2.8102009896164843,0.49723489292813083,C,590,Incorrect
2,relearn,15,660,B,59.722379215887145,98.55980827964761,2.9861189607943572,1.548173848152797,B,701,Correct
2,relearn,15,661,B,71.23976944251281,74.04625881832358,3.5619884721256403,1.1631159136472689,C,606,Incorrect
2,relearn,15,662,A,30.6134028003483,58.360018173923265,1.5306701400174152,0.9167170217928207,A,750,Correct
2,relearn,15,663,C,62.128277980642636,38.849329456079914,3.1064138990321317,0.610243840080551,C,1245,Correct
2,relearn,15,664,D,50.60491256099317,7.9998575489842025,2.5302456280496584,0.1256614685282681,D,654,Correct
2,relearn,15,665,B,62.097628151208184,62.76523164551161,3.104881407560409,0.9859139531920044,C,1580,Incorrect
2,relearn,15,666,D,51.604530522426614,21.301933233335582,2.5802265261213306,0.3346099847655367,D,896,Correct
2,relearn,15,667,D,48.22036357649373,41.95344811148253,2.4110181788246865,0.6590032218989704,A,3469,Incorrect
2,relearn,15,668,A,12.096166776769344,53.3749206416207,0.6048083388384672,0.8384112928682691,A,605,Correct
2,relearn,15,669,D,39.53443892171181,17.685320995300426,1.9767219460855905,0.2778003725760657,D,719,Correct
2,relearn,15,670,B,51.39834537239897,67.8654661921768,2.5699172686199483,1.0660282501089458,C,635,Incorrect
2,relearn,15,671,C,65.08196107926531,62.720582294187544,3.2540980539632653,0.9852126028214683,C,879,Correct
2,relearn,15,672,C,92.36935446588456,68.85380925721375,4.618467723294228,1.081553106670678,C,556,Correct
2,relearn,15,673,C,60.29725183569741,52.70075831072787,3.0148625917848704,0.8278215757379694,C,590,Correct
2,relearn,15,674,B,50.348557766379976,95.33981981934811,2.517427888318999,1.4975943876951927,B,689,Correct
2,relearn,15,675,B,45.34050246471617,73.65649633448884,2.2670251232358085,1.1569935388679684,B,1050,Correct
2,relearn,15,676,D,34.89128024891259,16.40114587173769,1.7445640124456292,0.2576285969055285,D,574,Correct
2,relearn,15,677,A,42.612451315100046,30.166628203816074,2.130622565755002,0.47385628774341626,D,623,Incorrect
2,relearn,15,678,A,21.75069567646432,75.08433086536377,1.0875347838232161,1.1794219112316608,A,1325,Correct
2,relearn,15,679,C,54.80745378837764,48.13559300922722,2.7403726894188822,0.7561121268698822,D,1872,Incorrect
2,relearn,15,680,B,27.80068818638926,85.92948236437599,1.390034409319463,1.3497771526134863,B,1244,Correct
2,relearn,15,681,B,45.03293675542907,82.81453463569605,2.2516468377714536,1.300847668109801,B,749,Correct
2,relearn,15,682,D,31.314121282448202,19.844598565036044,1.56570606412241,0.3117182253267789,D,475,Correct
2,relearn,15,683,B,29.219365056023157,62.739743748227106,1.4609682528011578,0.985513590237682,C,766,Incorrect
2,relearn,15,684,C,66.20892906286998,73.9153070019943,3.310446453143499,1.161058927326497,C,686,Correct
2,relearn,15,685,A,6.248938532105534,52.42938115724697,0.3124469266052767,0.8235587933793309,A,559,Correct
2,relearn,15,686,A,30.52487443292577,54.256785323784726,1.5262437216462885,0.8522635909030031,A,2238,Correct
2,relearn,15,687,D,61.5261947213436,14.615875656246033,3.07630973606718,0.22958563793722217,D,526,Correct
2,relearn,15,688,B,63.73712801866971,95.24820249236056,3.186856400933485,1.496155266088165,B,927,Correct
2,relearn,15,689,B,49.92207430948277,100.94155256981527,2.4961037154741383,1.5855861999763978,B,591,Correct
2,relearn,15,690,A,9.006278525862701,31.114363077491706,0.450313926293135,0.4887432723268672,A,730,Correct
2,relearn,15,691,B,36.955971965720124,75.47441113820723,1.8477985982860061,1.1855492778290373,C,1007,Incorrect
2,relearn,15,692,B,40.297987967413206,80.9362679288358,2.0148993983706602,1.2713439236710287,B,1389,Correct
2,relearn,15,693,C,67.74482939727199,64.55235818585854,3.387241469863599,1.0139860712429507,C,1166,Correct
2,relearn,15,694,D,46.78399282196203,19.392744743848123,2.3391996410981015,0.30462052210107665,D,400,Correct
2,relearn,15,695,B,32.796785900752184,75.52574667012402,1.6398392950376093,1.1863556544787273,B,718,Correct
2,relearn,15,696,C,81.59345920405394,69.71924429270402,4.079672960202697,1.0951473284189552,C,604,Correct
2,relearn,15,697,B,42.34924525651357,78.20889021852726,2.1174622628256783,1.2285023747796795,C,636,Incorrect
2,relearn,15,698,D,59.30848824046403,2.3484223999760054,2.965424412023202,0.03688893279645165,D,495,Correct
2,relearn,15,699,D,67.76208591425701,19.027511089884403,3.3881042957128504,0.2988834452803958,D,748,Correct
2,relearn,15,700,C,78.5513730227134,52.18251485802313,3.92756865113567,0.8196810266190285,C,863,Correct
2,relearn,15,701,D,51.275646893677546,36.48375334470127,2.5637823446838777,0.5730854574154779,D,877,Correct
2,relearn,15,702,D,38.852395777389525,27.03504750368193,1.942619788869476,0.42466553313509114,D,479,Correct
2,relearn,15,703,A,1.5813233067701447,54.534507227616544,0.07906616533850723,0.8566260363670979,A,540,Correct
2,relearn,15,704,B,30.09783238227404,63.56981518555335,1.5048916191137018,0.9985523218849763,D,1039,Incorrect
2,relearn,15,705,A,25.9405832004914,48.12398182494329,1.2970291600245698,0.755929738813653,A,1290,Correct
2,relearn,15,706,B,65.5607306016422,69.27060580494712,3.2780365300821104,1.0881001315326817,C,2718,Incorrect
2,relearn,15,707,A,16.898361097161178,70.87953339275647,0.8449180548580588,1.1133731069827808,A,639,Correct
2,relearn,15,708,B,59.20907056787296,77.53847683896961,2.960453528393648,1.2179715460392464,B,716,Correct
2,relearn,15,709,D,48.24386024829268,38.840941141011925,2.4121930124146336,0.610112076735583,C,1004,Incorrect
2,relearn,15,710,C,49.24166821914653,56.366808914464876,2.4620834109573266,0.8854077639599126,C,2032,Correct
2,relearn,15,711,D,58.519654567251095,23.583764652975535,2.925982728362555,0.3704529088888929,D,539,Correct
2,relearn,15,712,A,32.21293523099645,56.77988108019284,1.6106467615498223,0.8918962863661795,A,1585,Correct
2,relearn,15,713,A,17.938639885899352,56.78964461088803,0.8969319942949676,0.8920496515477052,A,510,Correct
2,relearn,15,714,C,70.51374885503898,51.76989261105851,3.5256874427519493,0.8131995715201695,C,633,Correct
2,relearn,15,715,C,95.2628291343581,54.34627359861425,4.7631414567179045,0.8536692694369373,C,529,Correct
2,relearn,15,716,D,37.83608525929873,48.152374482201296,1.8918042629649363,0.756375729630941,C,812,Incorrect
2,relearn,15,717,C,66.31894936341813,24.960382705584188,3.3159474681709065,0.392076774693265,C,638,Correct
2,relearn,15,718,C,53.16203838391664,60.47831744095305,2.6581019191958317,0.9499911888698478,C,1150,Correct
2,relearn,15,719,A,35.07024363445962,47.59196901165627,1.753512181722981,0.7475729010844622,A,699,Correct
2,relearn,15,720,C,86.37018786895733,46.35255040770639,4.318509393447866,0.7281041591800049,C,464,Correct
2,relearn,15,721,D,72.21238305901609,16.55302095185492,3.6106191529508043,0.26001424508532667,D,397,Correct
2,relearn,15,722,A,12.254955710167547,62.81353229687255,0.6127477855083774,0.9866726580494002,A,733,Correct
2,relearn,15,723,D,61.654030246424256,15.673689978082407,3.082701512321213,0.2462017464489383,D,574,Correct
2,relearn,15,724,A,13.634888674997391,59.64671834777829,0.6817444337498696,0.936928460860599,A,622,Correct
2,relearn,15,725,D,63.27703506997698,46.40216447701625,3.163851753498849,0.7288834951582975,C,507,Incorrect
2,relearn,15,726,D,71.28764633271467,17.669960310942614,3.5643823166357333,0.27755908751040265,D,527,Correct
2,relearn,15,727,A,38.57957744677104,68.36265892710605,1.9289788723385521,1.0738381353263053,B,1070,Incorrect
2,relearn,15,728,D,43.199623270278224,46.408748142889436,2.159981163513911,0.728986911140002,A,1405,Incorrect
2,relearn,15,729,B,25.64253742482673,65.49433774588697,1.2821268712413365,1.0287826515710359,A,624,Incorrect
2,relearn,15,730,B,57.43880897887592,49.46608176115532,2.871940448943796,0.777011395313588,C,843,Incorrect
2,relearn,15,731,B,41.71303467656335,66.9706741393415,2.0856517338281675,1.051972889410556,B,1343,Correct
2,relearn,15,732,B,62.97970969502957,58.90544119587236,3.148985484751478,0.9252845065870908,C,589,Incorrect
2,relearn,15,733,D,76.35353299727228,19.951832501292856,3.817676649863614,0.3134026520585785,D,525,Correct
2,relearn,15,734,B,67.12070654946284,85.76429873125598,3.3560353274731423,1.3471824541719708,B,703,Correct
2,relearn,15,735,B,63.34699543432289,79.43646647765587,3.1673497717161445,1.2477850975666778,B,492,Correct
2,relearn,15,736,A,32.00729785637699,49.12931201643887,1.6003648928188494,0.7717214285338255,A,704,Correct
2,relearn,15,737,B,60.844090961940715,85.77482919028263,3.042204548097036,1.3473478662355562,B,797,Correct
2,relearn,15,738,B,47.00366015952981,85.45470975392044,2.3501830079764905,1.3423194418878224,B,432,Correct
2,relearn,15,739,B,43.73462577496561,52.90996596224851,2.1867312887482804,0.8311078018434297,C,604,Incorrect
2,relearn,15,740,D,41.41481603634292,4.675410676228996,2.0707408018171463,0.07344117916478149,D,478,Correct
2,relearn,15,741,D,69.01211102044049,38.430849020694055,3.4506055510220244,0.6036703647731546,C,1071,Incorrect
2,relearn,15,742,B,41.57256283915059,69.73301490031851,2.0786281419575294,1.095363636617541,B,718,Correct
2,relearn,15,743,A,12.936798712703336,47.95681108684182,0.6468399356351668,0.7533038270000789,A,570,Correct
2,relearn,15,744,A,25.596243634143935,54.290859522969726,1.2798121817071968,0.8527988271721856,A,1088,Correct
2,relearn,15,745,B,40.78304409869341,76.5640435003285,2.0391522049346706,1.2026651829488069,B,652,Correct
2,relearn,15,746,A,14.197188979893207,36.54960837960021,0.7098594489946604,0.5741199058846799,A,651,Correct
2,relearn,15,747,B,65.20729457663896,62.78116505391072,3.2603647288319477,0.9861642345858708,C,910,Incorrect
2,relearn,15,748,A,0.6105293424641474,44.54321368516251,0.03052646712320737,0.6996831644029343,A,622,Correct
2,relearn,15,749,C,60.34919929731903,72.27369729573675,3.0174599648659517,1.1352725823602956,C,797,Correct
2,relearn,15,750,C,52.19279283760372,40.064199610849954,2.6096396418801864,0.6293269758470064,C,1535,Correct
2,relearn,15,751,D,39.880892342526586,40.43318551434683,1.9940446171263293,0.6351229928655262,C,685,Incorrect
2,relearn,15,752,C,77.24517071549757,38.66024758587412,3.8622585357748784,0.6072737490087232,C,558,Correct
2,relearn,15,753,A,34.7395634886199,27.24067780932917,1.736978174430995,0.42789556642297516,D,570,Incorrect
2,relearn,15,754,B,59.183578121176424,53.331473948089055,2.9591789060588214,0.8377288338021601,C,542,Incorrect
2,relearn,15,755,D,65.88744380225715,21.385493956014308,3.294372190112858,0.33592255352801736,D,604,Correct
2,relearn,15,756,A,27.941095034756593,64.85347294805251,1.3970547517378296,1.0187159708669309,B,624,Incorrect
2,relearn,15,757,D,32.41683769116058,17.235670787351715,1.6208418845580292,0.27073728362618177,D,622,Correct
2,relearn,15,758,D,64.78844912974381,44.234436580951794,3.2394224564871905,0.6948329049920088,C,636,Incorrect
2,relearn,15,759,C,71.9267536716882,59.69213197112495,3.59633768358441,0.9376418163879929,C,943,Correct
2,relearn,15,760,B,49.25707451880156,69.30214129151832,2.4628537259400782,1.088595489797379,B,894,Correct
2,relearn,15,761,C,76.35719676778167,75.78045369468221,3.8178598383890834,1.1903565830645757,B,669,Incorrect
2,relearn,15,762,A,31.89124084230886,57.645088530110264,1.594562042115443,0.9054869332086384,A,798,Correct
2,relearn,15,763,C,76.84622794055865,47.08720913357048,3.842311397027933,0.739644151460356,C,652,Correct
2,relearn,15,764,A,38.155552998887536,55.20436285842537,1.9077776499443768,0.8671481040106719,A,1390,Correct
2,relearn,15,765,A,15.218779589474426,27.055007323430846,0.7609389794737212,0.42497906125054197,A,610,Correct
2,relearn,15,766,D,40.44268954559135,9.171877189507853,2.0221344772795673,0.14407150999092835,D,522,Correct
2,relearn,15,767,C,77.51346303971161,24.331588430626507,3.8756731519855805,0.38219969731913317,C,843,Correct
2,relearn,15,768,D,66.94121383233026,25.6538535495756,3.3470606916165133,0.40296978923807575,C,559,Incorrect
2,relearn,15,769,C,71.6533209695272,53.77229078897993,3.5826660484763604,0.8446531685467671,C,1261,Correct
2,relearn,15,770,D,46.82448167973907,26.436653854356173,2.341224083986954,0.41526598767170825,D,768,Correct
2,relearn,15,771,A,27.91986313283866,47.99926057033084,1.395993156641933,0.7539706219274679,A,589,Correct
2,relearn,15,772,A,27.314778422189,52.54013042400885,1.36573892110945,0.8252984387935789,A,605,Correct
2,relearn,15,773,A,9.822152067640731,71.97637555620662,0.4911076033820365,1.1306022633969934,A,572,Correct
2,relearn,15,774,C,79.85569751878862,55.06128335513709,3.9927848759394307,0.8649006164286231,C,685,Correct
2,relearn,15,775,C,54.55836903777799,37.55052144005407,2.7279184518888995,0.5898422114726994,D,1676,Incorrect
2,relearn,15,776,B,63.993216065305006,94.09692456068629,3.19966080326525,1.4780710346262251,B,846,Correct
2,relearn,15,777,D,60.86247115592156,35.93356773311409,3.043123557796078,0.5644431620381123,C,909,Incorrect
2,relearn,15,778,B,54.90871488213866,70.8566918088578,2.745435744106933,1.1130143122219187,C,735,Incorrect
2,relearn,15,779,D,33.657844821358616,33.43028208377626,1.6828922410679308,0.52512164300913,A,734,Incorrect
2,relearn,15,780,C,82.11561228301758,36.56912528934035,4.105780614150879,0.5744264767859818,C,668,Correct
2,relearn,15,781,A,36.555782844392205,36.123051209267906,1.8277891422196104,0.5674195615214198,A,1531,Correct
2,relearn,15,782,C,64.1117976773984,28.415487160529192,3.2055898838699197,0.44634942855846793,D,1423,Incorrect
2,relearn,15,783,A,15.702539171342213,31.669504524642964,0.7851269585671106,0.49746341378723524,A,638,Correct
2,relearn,15,784,D,50.07727858477905,22.388773956806695,2.5038639292389524,0.351682038927932,C,606,Incorrect
2,relearn,15,785,D,50.92369013632494,47.75187948204815,2.5461845068162474,0.7500847688795385,C,620,Incorrect
2,relearn,15,786,A,10.598631539285513,62.03927708855741,0.5299315769642756,0.9745106856771678,A,589,Correct
2,relearn,15,787,A,24.459463407149048,41.180849193228084,1.2229731703574525,0.6468672664701727,A,799,Correct
2,relearn,15,788,B,38.95026749745462,80.93681588338043,1.9475133748727307,1.2713525309208882,B,748,Correct
2,relearn,15,789,B,41.3187132758909,49.633390974583314,2.065935663794545,0.7796394822925042,C,640,Incorrect
2,relearn,15,790,A,22.25245720858721,29.263181670477692,1.1126228604293604,0.45966498278318096,A,683,Correct
2,relearn,15,791,B,30.401991686776757,85.28968730009034,1.5200995843388379,1.3397272752446723,C,605,Incorrect
2,relearn,15,792,C,84.64647904239104,47.05453086810438,4.232323952119552,0.7391308424667544,C,572,Correct
2,relearn,15,793,B,54.25597194150456,67.46389752506406,2.712798597075228,1.0597204242363791,C,1023,Incorrect
2,relearn,15,794,A,34.79427333932334,64.88358784346131,1.739713666966167,1.0191890145378304,A,1549,Correct
2,relearn,15,795,A,42.59621995491345,44.196851909686245,2.1298109977456727,0.6942425263563317,C,2910,Incorrect
2,relearn,15,796,B,56.01800393728524,92.69771742120562,2.800900196864262,1.4560923402750108,B,589,Correct
2,relearn,15,797,B,34.2229958038458,86.76775548034374,1.71114979019229,1.362944715927617,B,510,Correct
2,relearn,15,798,B,57.631875125562345,91.57750642046055,2.8815937562781175,1.438496107022955,B,602,Correct
2,relearn,15,799,C,52.602720830414576,61.779508205144964,2.630136041520729,0.9704302455983689,C,593,Correct
2,relearn,15,800,A,26.508731539265074,70.07394020680374,1.3254365769632537,1.1007188788089253,A,846,Correct
2,relearn,15,801,B,36.20795512263085,65.65421872002975,1.8103977561315423,1.0312940560401145,A,1500,Incorrect
2,relearn,15,802,C,69.5668301804001,36.653875673992225,3.4783415090200047,0.575757732715038,D,1098,Incorrect
2,relearn,15,803,C,97.34066704865889,46.06251059414932,4.867033352432944,0.7235482244424076,C,462,Correct
2,relearn,15,804,A,23.255484641819045,33.9677541500001,1.1627742320909522,0.5335642344829226,A,1230,Correct
2,relearn,15,805,A,18.55240104289554,59.787559601432335,0.9276200521447769,0.9391407900996086,A,591,Correct
2,relearn,15,806,D,67.49020695074341,36.270026695058704,3.3745103475371705,0.5697282470535106,C,1472,Incorrect
2,relearn,15,807,C,68.2542211181546,46.72098048667115,3.41271105590773,0.7338914453271909,D,893,Incorrect
2,relearn,15,808,C,51.81623879875624,61.78485562478057,2.590811939937812,0.9705142426695832,B,1630,Incorrect
2,relearn,15,809,C,67.33334729027031,54.300173020328536,3.3666673645135154,0.8529451232465942,C,668,Correct
2,relearn,15,810,D,60.72607661453742,27.89498051444666,3.036303830726871,0.43817332928108027,D,1422,Correct
2,relearn,15,811,D,66.68008191254255,30.292662028724536,3.3340040956271277,0.47583602243559736,D,510,Correct
2,relearn,15,812,D,59.89220889880083,34.405217754654274,2.994610444940042,0.540435896715895,D,588,Correct
2,relearn,15,813,A,45.60253365349679,60.79503973661063,2.2801266826748394,0.9549662510561775,C,1566,Incorrect
2,relearn,15,814,B,27.54794229433715,66.59073377385685,1.3773971147168576,1.0460048001055122,A,524,Incorrect
2,relearn,15,815,D,37.82621257697712,44.188351011998364,1.8913106288488561,0.6941089945677057,C,815,Incorrect
2,relearn,15,816,A,48.275184636376764,49.973041145975294,2.413759231818838,0.7849746947086823,A,2780,Correct
2,relearn,15,817,D,51.870808599902404,16.360544404281978,2.59354042999512,0.2569908305461093,D,719,Correct
2,relearn,15,818,D,56.890754172602854,21.31811188736589,2.8445377086301424,0.3348641184687696,D,1629,Correct
2,relearn,15,819,A,46.281871530626674,52.80229266002144,2.314093576531334,0.8294164735671081,A,1837,Correct
2,relearn,15,820,D,52.826952375338635,30.03699413661527,2.6413476187669316,0.4718200005775511,D,909,Correct
2,relearn,15,821,A,6.82989536388844,53.040310612811794,0.341494768194422,0.8331552508266513,A,559,Correct
2,relearn,15,822,D,59.947918987390054,41.465832851069344,2.9973959493695026,0.6513437792995087,C,2268,Incorrect
2,relearn,15,823,D,42.77458411886229,1.227031381895003,2.1387292059431147,0.019274163875427366,D,557,Correct
2,relearn,15,824,C,95.77030097196007,62.66376389080608,4.788515048598003,0.9843201014282086,C,737,Correct
2,relearn,15,825,D,32.4482074109482,30.745706794365013,1.6224103705474102,0.4829524329730146,D,571,Correct
2,relearn,15,826,A,13.110248355409714,58.090409239431715,0.6555124177704857,0.9124820145531165,A,1150,Correct
2,relearn,15,827,D,50.630591552328326,42.179302855866624,2.5315295776164164,0.6625509399276478,A,1102,Incorrect
2,relearn,15,828,C,60.50359129762299,42.41015179334057,3.025179564881149,0.6661771065579336,C,1980,Correct
2,relearn,15,829,C,55.83498319088761,58.158159530006756,2.7917491595443806,0.9135462336288621,C,959,Correct
2,relearn,15,830,A,29.77935450959559,66.2232624205671,1.4889677254797795,1.040232573586013,A,603,Correct
2,relearn,15,831,D,31.11610103548588,39.89029641627748,1.5558050517742938,0.6265953108544828,A,2525,Incorrect
2,relearn,15,832,D,37.227219863106214,44.959597384304466,1.8613609931553106,0.7062237042544288,A,1085,Incorrect
2,relearn,15,833,D,31.809615526146466,20.035762157103346,1.5904807763073234,0.31472101600914126,D,525,Correct
2,relearn,15,834,D,61.54532965984648,47.02928004611201,3.077266482992324,0.7387342034824127,C,622,Incorrect
2,relearn,15,835,C,82.70740073312308,58.96822009708447,4.1353700366561545,0.9262706352613328,C,607,Correct
2,relearn,15,836,C,86.82950479344103,31.793469739861315,4.341475239672052,0.49941065483438857,D,638,Incorrect
2,relearn,15,837,A,41.181440120703,59.29016851234999,2.05907200603515,0.9313277891424979,C,1021,Incorrect
2,relearn,15,838,A,44.582188748765745,36.08022534914765,2.2291094374382876,0.5667468544837324,A,1901,Correct
2,relearn,15,839,A,37.93140904550248,54.490756607510825,1.8965704522751239,0.8559388032335274,A,753,Correct
2,relearn,15,840,C,86.94213817861525,31.743478876282587,4.347106908930763,0.4986254001855608,C,1677,Correct
2,relearn,15,841,B,26.363394209497205,62.423618108881925,1.3181697104748602,0.9805479003067911,A,749,Incorrect
2,relearn,15,842,B,53.61938583596423,66.8054723081953,2.6809692917982115,1.0493779051151138,A,1435,Incorrect
2,relearn,15,843,B,35.11581264181207,60.167816118509414,1.7557906320906034,0.9451138455022535,A,1151,Incorrect
2,relearn,15,844,A,12.158845596186412,51.260879079447825,0.6079422798093206,0.80520400566274,A,589,Correct
2,relearn,15,845,D,53.1958420647606,-1.5177780497783324,2.65979210323803,-0.02384120185481726,D,511,Correct
2,relearn,15,846,C,65.56952420838513,51.8351510363907,3.2784762104192566,0.8142246484682119,C,652,Correct
2,relearn,15,847,A,30.967068698541603,40.23375151498754,1.54835343492708,0.6319902909292103,A,830,Correct
2,relearn,15,848,B,34.4743540111878,73.19569878763288,1.72371770055939,1.1497553479279938,B,767,Correct
2,relearn,15,849,C,64.77637679317628,51.985169986257326,3.238818839658814,0.8165811406222131,C,636,Correct
2,relearn,15,850,D,30.76237367349521,12.312726695246477,1.5381186836747605,0.19340785865722634,D,446,Correct
2,relearn,15,851,B,41.353414320605125,59.35696319003749,2.067670716030256,0.9323769974861076,C,621,Incorrect
2,relearn,15,852,D,39.25658101958325,47.89943829302077,1.9628290509791626,0.7524026172621583,C,641,Incorrect
2,relearn,15,853,A,38.677762606259776,30.82793094191643,1.9338881303129887,0.4842440068624907,D,827,Incorrect
2,relearn,15,854,A,11.849670973511408,46.07032625796176,0.5924835486755704,0.7236709926024881,A,556,Correct
2,relearn,15,855,A,27.038494255419973,70.91055379177209,1.3519247127709986,1.113860374271075,B,619,Incorrect
2,relearn,15,856,B,33.534879254155896,70.86732274856146,1.676743962707795,1.1131813026322877,A,657,Incorrect
2,relearn,15,857,C,65.09032293866005,46.544026009978055,3.2545161469330024,0.7311118509071964,C,524,Correct
2,relearn,15,858,A,40.1904212231146,63.1215413094234,2.0095210611557297,0.9915108523047459,C,476,Incorrect
2,relearn,15,859,B,40.27717941886049,54.51754445325086,2.0138589709430246,0.8563595857304394,C,704,Incorrect
2,relearn,15,860,B,53.793055429866456,56.02459603027158,2.6896527714933227,0.8800322965451854,C,845,Incorrect
2,relearn,15,861,C,54.94981615441232,59.741755632119684,2.7474908077206157,0.9384213030321193,C,572,Correct
2,relearn,15,862,D,59.679027724367124,0.17825995926866867,2.983951386218356,0.002800100892338326,D,526,Correct
2,relearn,15,863,C,72.09962756643127,41.72105210705554,3.604981378321563,0.6553527539978132,C,588,Correct
2,relearn,15,864,A,29.394860021345423,30.817106556866882,1.4697430010672712,0.48407397781973416,A,989,Correct
2,relearn,15,865,A,10.245291659686549,38.07411920167964,0.5122645829843274,0.5980668658794942,A,541,Correct
2,relearn,15,866,B,34.23368071976191,58.60776849578326,1.7116840359880954,0.9206086747482201,C,587,Incorrect
2,relearn,15,867,C,55.83416836629589,36.63518928071968,2.791708418314794,0.5754642075359024,C,654,Correct
2,relearn,15,868,B,35.59050257170611,78.62196153909201,1.7795251285853055,1.2349908839101535,B,909,Correct
2,relearn,15,869,D,53.02264559847404,2.9664271432615656,2.651132279923702,0.046596528603399454,D,496,Correct
2,relearn,15,870,B,66.11473857164583,59.74762035031992,3.3057369285822915,0.9385134258101856,C,655,Incorrect
2,relearn,15,871,A,16.617554029521052,32.46221933238668,0.8308777014760526,0.5099153488692327,A,603,Correct
2,relearn,15,872,C,65.20576674139726,41.24860387049979,3.2602883370698628,0.6479315544519884,C,575,Correct
2,relearn,15,873,A,14.649767707172733,65.39089966820336,0.7324883853586367,1.0271578500462746,A,765,Correct
2,relearn,15,874,D,57.46309792802217,6.634044614581597,2.8731548964011084,0.10420732912378239,D,703,Correct
2,relearn,15,875,D,24.04972149041582,18.853805361325882,1.202486074520791,0.29615488207676627,A,619,Incorrect
2,relearn,15,876,D,48.07673561719449,28.76758466740769,2.4038367808597245,0.45188016326325187,C,1678,Incorrect
2,relearn,15,877,A,1.4997631935380085,39.03589580714623,0.07498815967690042,0.613174417470136,A,719,Correct
2,relearn,15,878,B,52.67689692552612,48.885240815654846,2.633844846276306,0.7678875670771458,C,1581,Incorrect
2,relearn,15,879,C,92.11242573576334,59.00822748559112,4.605621286788167,0.926899069850442,C,574,Correct
2,relearn,15,880,A,34.995510985138395,41.109550815704054,1.7497755492569198,0.6457473141749608,A,847,Correct
2,relearn,15,881,B,49.77148780469723,83.7130364957094,2.4885743902348616,1.3149613023230746,B,669,Correct
2,relearn,15,882,A,32.44356614643793,58.533820243747314,1.6221783073218967,0.9194470983215104,A,1616,Correct
2,relearn,15,883,C,100.27337088966001,52.05447521677316,5.013668544483,0.8176697846374326,C,523,Correct
2,relearn,15,884,A,35.05157613151854,48.79870823512689,1.752578806575927,0.7665283164807317,A,990,Correct
2,relearn,15,885,D,72.29649745853834,21.324264425907316,3.614824872926917,0.334960762318183,D,445,Correct
2,relearn,15,886,D,62.66109775819497,16.401824684141403,3.1330548879097484,0.25763925966583184,D,670,Correct
2,relearn,15,887,D,36.20542925599817,36.97215766423402,1.8102714627999086,0.5807572945266058,A,733,Incorrect
2,relearn,15,888,A,28.016213169927706,72.62161685454336,1.4008106584963853,1.1407376900102304,A,2671,Correct
2,relearn,15,889,A,10.63851069960458,28.33215574026903,0.531925534980229,0.44504046166995537,A,574,Correct
2,relearn,15,890,D,60.6325662661079,14.271961457455127,3.0316283133053954,0.2241834463352885,D,812,Correct
2,relearn,15,891,D,56.26848164810506,10.267040411829948,2.8134240824052528,0.1612742936595724,D,623,Correct
2,relearn,15,892,C,67.93003033222493,53.80360298318058,3.3965015166112464,0.84514501934311,C,459,Correct
2,relearn,15,893,D,51.10627628456712,41.42691787697334,2.5553138142283562,0.6507325043158356,C,1038,Incorrect
2,relearn,15,894,C,64.39122994893721,36.38447247356258,3.2195614974468607,0.5715259571384214,C,1424,Correct
2,relearn,15,895,C,81.65205389085975,54.89441598364259,4.082602694542987,0.8622794698865683,C,682,Correct
2,relearn,15,896,C,58.193575168566966,50.95389942991449,2.909678758428348,0.8003819806038626,A,1041,Incorrect
2,relearn,15,897,C,69.86743721868875,47.08203263606937,3.4933718609344373,0.739562839227752,C,555,Correct
2,relearn,15,898,B,54.68362522149743,52.28081892900555,2.7341812610748715,0.8212251833551101,C,430,Incorrect
