experiment,condition,subject,trial,cat,x,y,xt,yt,resp,rt,fb
2,new_learn,16,0,D,29.764103833221686,36.515976291837354,1.4882051916610843,0.5735916142854764,A,4137,Incorrect
2,new_learn,16,1,A,44.0948348275869,35.60778718063378,2.2047417413793453,0.5593258130863394,A,2661,Correct
2,new_learn,16,2,C,66.51399632477565,44.27160859188902,3.325699816238782,0.6954168015744066,B,997,Incorrect
2,new_learn,16,3,C,66.43275344604531,33.51885867402811,3.3216376723022654,0.5265130008352061,C,1190,Correct
2,new_learn,16,4,C,82.2622515898192,60.50780740401137,4.11311257949096,0.950454416126341,C,1845,Correct
2,new_learn,16,5,C,63.85252918622455,44.990212390827466,3.1926264593112275,0.7067046036523403,C,854,Correct
2,new_learn,16,6,B,29.239988655364563,66.44403664882722,1.461999432768228,1.043700487054033,A,901,Incorrect
2,new_learn,16,7,B,45.871801127788764,96.8355671472446,2.293590056389438,1.5210895317799238,B,1261,Correct
2,new_learn,16,8,C,53.19404928850237,56.567689652412305,2.659702464425118,0.8885631912128292,C,1078,Correct
2,new_learn,16,9,B,64.59573669355328,85.9699176536407,3.2297868346776637,1.3504123086519855,B,749,Correct
2,new_learn,16,10,D,36.383877970830554,42.53581072223213,1.8191938985415277,0.668150952397252,C,663,Incorrect
2,new_learn,16,11,D,56.152278423589756,27.58747167190368,2.8076139211794877,0.4333429916778456,C,630,Incorrect
2,new_learn,16,12,D,54.25888395018693,2.0300629431162847,2.7129441975093465,0.03188815414209497,D,828,Correct
2,new_learn,16,13,B,65.39278910289904,88.53625329635845,3.269639455144952,1.3907242146610241,B,880,Correct
2,new_learn,16,14,B,45.418930643509356,81.53204835631153,2.2709465321754676,1.2807024207415805,B,1022,Correct
2,new_learn,16,15,A,18.35147087485103,26.10896407616984,0.9175735437425516,0.41011864867267495,A,1054,Correct
2,new_learn,16,16,C,92.70066061203846,59.49807528936226,4.635033030601923,0.9345935811589644,B,1028,Incorrect
2,new_learn,16,17,D,46.99903624262787,36.363463334498874,2.3499518121313936,0.5711959463537174,C,1142,Incorrect
2,new_learn,16,18,D,70.56039151141492,31.38363869248761,3.528019575570746,0.49297304379617735,B,860,Incorrect
2,new_learn,16,19,A,26.07138685338758,38.97706342973875,1.303569342669379,0.6122502806468532,B,1758,Incorrect
2,new_learn,16,20,D,40.51788396525468,39.036615648539986,2.025894198262734,0.6131857247123078,C,1668,Incorrect
2,new_learn,16,21,B,40.74772338570892,100.03719311992711,2.0373861692854462,1.571380554956532,D,982,Incorrect
2,new_learn,16,22,D,34.35874762872907,42.089097821479314,1.7179373814364536,0.6611340025609079,C,2057,Incorrect
2,new_learn,16,23,A,15.291330586768058,69.21909486229906,0.7645665293384029,1.0872909995376685,A,1027,Correct
2,new_learn,16,24,A,29.89970091106391,56.084872908203835,1.4949850455531957,0.8809791235296518,B,1335,Incorrect
2,new_learn,16,25,A,21.672132271650998,51.4486542324656,1.08360661358255,0.8081535708689768,C,1342,Incorrect
2,new_learn,16,26,C,93.04446527141505,36.257549944596754,4.652223263570752,0.5695322627155508,D,1645,Incorrect
2,new_learn,16,27,B,44.856749327970995,100.18750541632303,2.2428374663985498,1.5737416549870402,D,1272,Incorrect
2,new_learn,16,28,B,50.70003748510826,60.7268295406443,2.535001874255413,0.9538948078034388,C,4125,Incorrect
2,new_learn,16,29,C,70.64508667207645,73.84092035652334,3.5322543336038223,1.1598904646318138,C,4421,Correct
2,new_learn,16,30,D,37.99678084869125,40.53694709323938,1.8998390424345626,0.6367528759353946,A,965,Incorrect
2,new_learn,16,31,C,54.080379486531356,55.084795939656686,2.7040189743265675,0.8652699512425917,B,1312,Incorrect
2,new_learn,16,32,C,56.80290508206825,59.32833915296301,2.8401452541034127,0.9319273721631615,C,756,Correct
2,new_learn,16,33,B,71.04384791521302,65.10740072396642,3.5521923957606507,1.0227046590436986,C,2918,Incorrect
2,new_learn,16,34,D,58.251958183514844,10.355664848329361,2.912597909175742,0.1626664030527479,D,879,Correct
2,new_learn,16,35,D,55.26517946289719,43.46599521535213,2.7632589731448594,0.6827622562475968,D,1821,Correct
2,new_learn,16,36,A,33.33534795122067,71.39875447802551,1.6667673975610335,1.1215290127181314,A,1309,Correct
2,new_learn,16,37,B,34.63224989995661,79.68490775484248,1.7316124949978304,1.2516876040229676,B,1357,Correct
2,new_learn,16,38,A,25.18057771015834,31.620209136657532,1.2590288855079168,0.4966890836434808,C,4800,Incorrect
2,new_learn,16,39,D,48.577471463680226,19.83704562939223,2.4288735731840116,0.31159958409112065,D,815,Correct
2,new_learn,16,40,B,32.66100343100489,58.73985554118725,1.6330501715502448,0.9226834932055977,B,1172,Correct
2,new_learn,16,41,B,52.487892924010104,81.09990889435474,2.624394646200505,1.2739143899465317,A,925,Incorrect
2,new_learn,16,42,C,67.4457275252913,33.009178407011,3.372286376264565,0.5185069619225029,B,6590,Incorrect
2,new_learn,16,43,B,42.09091128848681,56.25285136066957,2.1045455644243405,0.8836177228907904,C,477,Incorrect
2,new_learn,16,44,B,36.37128494197783,78.3698366857853,1.8185642470988912,1.2310305159754749,A,2141,Incorrect
2,new_learn,16,45,B,56.43995249238946,50.65625007887466,2.8219976246194727,0.7957065155310001,B,1141,Correct
2,new_learn,16,46,D,66.02244502392386,18.88863049616395,3.301122251196193,0.29670191401560403,D,958,Correct
2,new_learn,16,47,C,86.1565182980385,72.31997325185642,4.307825914901925,1.1359994833792124,D,781,Incorrect
2,new_learn,16,48,D,51.15808529236672,9.804813630187308,2.557904264618336,0.1540136523520676,D,812,Correct
2,new_learn,16,49,D,30.455958390678713,27.134712168734627,1.5227979195339356,0.4262310620328513,C,5199,Incorrect
2,new_learn,16,50,C,63.80420775104793,72.54693739600665,3.1902103875523964,1.1395646278186657,B,1237,Incorrect
2,new_learn,16,51,A,42.25411159174562,64.77085547334187,2.112705579587281,1.0174182186088854,A,662,Correct
2,new_learn,16,52,D,71.11567706537531,9.878079027084105,3.5557838532687653,0.15516450251533417,D,6776,Correct
2,new_learn,16,53,B,59.44587240330037,62.31229179014788,2.9722936201650185,0.9787991905813608,A,3962,Incorrect
2,new_learn,16,54,C,66.86756278700511,27.70332687918855,3.3433781393502557,0.435162841018277,A,908,Incorrect
2,new_learn,16,55,B,54.41715400734293,82.53117854201766,2.720857700367146,1.296396720998551,D,1263,Incorrect
2,new_learn,16,56,B,57.811122375243045,50.78578229903252,2.8905561187621522,0.7977412028872556,C,1238,Incorrect
2,new_learn,16,57,A,27.13236779686286,71.21674724370067,1.356618389843143,1.1186700497668558,B,3355,Incorrect
2,new_learn,16,58,D,26.29774477933304,25.568660685651857,1.314887238966652,0.40163158286087014,D,1344,Correct
2,new_learn,16,59,C,67.73730205644807,56.88361707760879,3.3868651028224037,0.8935257676031532,C,10702,Correct
2,new_learn,16,60,C,59.26826284301571,30.32963122648811,2.963413142150786,0.4764167332361132,D,1862,Incorrect
2,new_learn,16,61,B,63.214399799438105,84.30477889069557,3.160719989971905,1.3242563701276056,C,828,Incorrect
2,new_learn,16,62,B,69.58928178241487,79.49817733602372,3.479464089120744,1.2487544494631533,B,6365,Correct
2,new_learn,16,63,A,30.2278053736113,65.85770743608083,1.5113902686805651,1.034490449317287,C,4575,Incorrect
2,new_learn,16,64,A,46.141251397275326,38.12978484160992,2.307062569863766,0.5989412597068058,A,2277,Correct
2,new_learn,16,65,C,55.61953600750077,35.16558404928449,2.780976800375038,0.5523797025421329,A,2797,Incorrect
2,new_learn,16,66,A,20.063865074760358,24.54676919292483,1.003193253738018,0.3855797488292845,A,1820,Correct
2,new_learn,16,67,D,52.00258919294713,12.973984070244727,2.6001294596473565,0.2037948652143592,C,2733,Incorrect
2,new_learn,16,68,B,58.08270029704714,60.31600776299187,2.9041350148523573,0.947441634410401,A,1543,Incorrect
2,new_learn,16,69,A,24.837284848920692,41.32280443134477,1.2418642424460347,0.6490970941362024,C,3349,Incorrect
2,new_learn,16,70,B,29.122130811627937,58.93220614526432,1.4561065405813969,0.9257049294290081,A,1750,Incorrect
2,new_learn,16,71,B,63.06602054740741,66.98871402629352,3.1533010273703708,1.0522562592921563,A,3020,Incorrect
2,new_learn,16,72,A,8.896070497131564,41.06467852485833,0.4448035248565782,0.6450424618786073,A,2509,Correct
2,new_learn,16,73,A,24.697937022511635,24.66743988030643,1.2348968511255818,0.3874752395541928,A,781,Correct
2,new_learn,16,74,A,28.379231630118095,48.77751243594424,1.418961581505905,0.766195373645736,A,686,Correct
2,new_learn,16,75,C,89.62701572748676,70.53454734236084,4.481350786374338,1.1079540787752113,C,5927,Correct
2,new_learn,16,76,D,55.76613712592833,23.621609269732055,2.788306856296417,0.37104737073879396,B,2700,Incorrect
2,new_learn,16,77,D,57.12293895685033,6.8266405016184635,2.8561469478425163,0.10723261824291554,D,674,Correct
2,new_learn,16,78,A,27.682530776685628,65.63523375196819,1.3841265388342814,1.0309958408591604,A,1462,Correct
2,new_learn,16,79,D,31.875500348080017,28.298513810104552,1.5937750174040008,0.4445120154666688,A,1407,Incorrect
2,new_learn,16,80,C,93.58331639353639,47.25657033202238,4.67916581967682,0.7423044709446543,C,1100,Correct
2,new_learn,16,81,C,62.039683849970764,50.59119048434508,3.1019841924985383,0.7946845618099018,B,1276,Incorrect
2,new_learn,16,82,A,15.158016871188872,26.069258522764315,0.7579008435594435,0.4094949552982474,A,935,Correct
2,new_learn,16,83,C,74.58084175341267,41.935907777051355,3.729042087670633,0.6587276989700181,C,1381,Correct
2,new_learn,16,84,A,28.71763864206878,37.88247760890334,1.435881932103439,0.5950565667795529,D,1095,Incorrect
2,new_learn,16,85,B,57.765907925166815,83.94751881284569,2.8882953962583406,1.318644541947635,C,2157,Incorrect
2,new_learn,16,86,B,37.229438674816144,77.95798326744304,1.8614719337408072,1.2245611376083754,B,1118,Correct
2,new_learn,16,87,D,57.66261216003922,37.77731307964189,2.8831306080019607,0.5934046462168229,D,2045,Correct
2,new_learn,16,88,D,74.03241886015275,30.465474914517984,3.7016209430076374,0.47855056089786907,C,2061,Incorrect
2,new_learn,16,89,D,54.56072831535651,42.50424300478815,2.728036415767826,0.6676550878511891,D,950,Correct
2,new_learn,16,90,C,81.66331943823207,49.85606586004842,4.083165971911603,0.783137251214085,C,2075,Correct
2,new_learn,16,91,D,49.049841247388926,15.345713585075401,2.4524920623694464,0.2410499053148298,D,1143,Correct
2,new_learn,16,92,D,66.2830169933871,10.64639393159105,3.3141508496693546,0.16723316481354697,D,1163,Correct
2,new_learn,16,93,B,38.87811228840432,99.23465159381078,1.9439056144202158,1.5587742621432932,C,2271,Incorrect
2,new_learn,16,94,A,33.734850007245306,24.926061509175888,1.6867425003622654,0.39153765860077133,A,612,Correct
2,new_learn,16,95,C,93.54149902993849,46.53802628324193,4.677074951496925,0.7310176074200079,C,2686,Correct
2,new_learn,16,96,B,31.29775285760249,82.24537317977577,1.5648876428801244,1.2919073008666726,D,1046,Incorrect
2,new_learn,16,97,C,69.53829683974426,43.06829697591218,3.476914841987213,0.6765152269107462,D,1773,Incorrect
2,new_learn,16,98,A,33.40750807183499,37.14352312013399,1.6703754035917495,0.583449096813278,A,592,Correct
2,new_learn,16,99,A,4.714422915016872,45.273982386582375,0.2357211457508436,0.7111620523222044,A,935,Correct
2,new_learn,16,100,A,40.38692692655991,43.10329436756054,2.0193463463279953,0.6770649646532324,A,1429,Correct
2,new_learn,16,101,A,20.787463066452432,38.86221765176897,1.0393731533226216,0.6104462873850249,A,558,Correct
2,new_learn,16,102,D,68.15740693855355,30.149050723733982,3.4078703469276777,0.4735801813319436,B,6918,Incorrect
2,new_learn,16,103,C,76.40615274076609,26.03549554440949,3.820307637038304,0.40896460767443316,D,948,Incorrect
2,new_learn,16,104,C,60.964984829558404,47.9140596993948,3.04824924147792,0.7526322897764074,C,709,Correct
2,new_learn,16,105,C,53.310086441271565,63.33110164810979,2.665504322063578,0.9948026184072508,C,607,Correct
2,new_learn,16,106,A,11.371804610799979,71.96036441898,0.5685902305399989,1.1303507610415597,A,613,Correct
2,new_learn,16,107,A,32.25000097763505,47.61385286899968,1.6125000488817522,0.7479166519117734,A,783,Correct
2,new_learn,16,108,A,13.220989874665662,55.611104737192846,0.6610494937332831,0.873537190501888,A,677,Correct
2,new_learn,16,109,A,22.575131114728226,45.163081180058185,1.1287565557364112,0.7094200202437512,A,611,Correct
2,new_learn,16,110,C,78.09327275934389,29.828136878266168,3.904663637967195,0.46853927843515897,D,1839,Incorrect
2,new_learn,16,111,D,44.68017442581198,36.3421165429981,2.2340087212905986,0.5708606317369346,B,1286,Incorrect
2,new_learn,16,112,D,55.79972282098808,33.5995456757138,2.7899861410494045,0.5277804292938858,D,1127,Correct
2,new_learn,16,113,A,22.311609104592378,58.367144211352034,1.115580455229619,0.9168289573269978,A,1132,Correct
2,new_learn,16,114,C,57.95531486149768,43.65099428988145,2.8977657430748844,0.6856682149149079,C,1557,Correct
2,new_learn,16,115,A,30.009950884128582,41.5900501986804,1.500497544206429,0.6532949808330254,A,1149,Correct
2,new_learn,16,116,A,34.18565889611105,64.14721269327815,1.7092829448055524,1.0076220607273227,A,1022,Correct
2,new_learn,16,117,A,34.60761515679103,48.60300764530538,1.7303807578395516,0.7634542588042996,A,679,Correct
2,new_learn,16,118,D,45.45193037156973,26.11712374120817,2.272596518578487,0.4102468203913758,D,1958,Correct
2,new_learn,16,119,B,40.70116516945214,51.48427671398112,2.035058258472607,0.8087131275001358,D,652,Incorrect
2,new_learn,16,120,C,91.07841464675369,68.06332528598979,4.5539207323376845,1.0691362134867894,C,1858,Correct
2,new_learn,16,121,A,48.18727083006962,46.05868977220098,2.409363541503481,0.7234882071115897,D,3285,Incorrect
2,new_learn,16,122,D,57.55530781535238,46.49930766079241,2.877765390767619,0.7304094167207851,B,4555,Incorrect
2,new_learn,16,123,B,71.69247230194934,74.12172641079744,3.584623615097467,1.164301355817769,C,3540,Incorrect
2,new_learn,16,124,D,52.14035685947984,13.75722775131274,2.607017842973992,0.21609802818642865,D,672,Correct
2,new_learn,16,125,B,60.33378963368603,76.4540306811789,3.0166894816843017,1.2009371056266016,C,1443,Incorrect
2,new_learn,16,126,C,81.96203132387198,57.891174997557385,4.098101566193599,0.9093524504000369,C,1311,Correct
2,new_learn,16,127,A,5.651914934390135,51.24692019449335,0.2825957467195067,0.8049847400106134,A,621,Correct
2,new_learn,16,128,B,46.7801336389465,55.313161433150526,2.339006681947325,0.8688571080260599,A,671,Incorrect
2,new_learn,16,129,A,26.492882579254474,73.88100667249434,1.3246441289627235,1.1605201390106334,A,459,Correct
2,new_learn,16,130,A,4.263166292876775,57.52354896909402,0.21315831464383878,0.9035777942485923,A,567,Correct
2,new_learn,16,131,D,28.7518825295244,16.867190378873204,1.4375941264762202,0.26494920690484247,A,565,Incorrect
2,new_learn,16,132,A,16.18342720992811,33.92119330469646,0.8091713604964055,0.5328328584351684,A,575,Correct
2,new_learn,16,133,B,72.49239967990539,85.93246030710226,3.6246199839952693,1.3498239300284447,C,7351,Incorrect
2,new_learn,16,134,D,35.3335667025522,41.592697850305356,1.7666783351276099,0.6533365700474963,A,652,Incorrect
2,new_learn,16,135,C,74.19611397125072,44.43375117281504,3.709805698562536,0.697963731279763,C,1622,Correct
2,new_learn,16,136,D,38.71870496439709,43.40601475561914,1.9359352482198546,0.6818200853893163,D,1484,Correct
2,new_learn,16,137,C,53.283784671964995,54.6994973471445,2.66418923359825,0.8592176951042176,D,1128,Incorrect
2,new_learn,16,138,D,68.73653508247185,13.605791434506754,3.4368267541235924,0.21371927208460678,C,4926,Incorrect
2,new_learn,16,139,D,61.954906485351664,37.73058112470488,3.097745324267583,0.5926705823852328,C,757,Incorrect
2,new_learn,16,140,B,56.404217350411905,57.108313076341474,2.8202108675205952,0.8970552840977015,B,819,Correct
2,new_learn,16,141,B,51.09809553045768,96.9462785868937,2.554904776522884,1.5228285830072736,B,633,Correct
2,new_learn,16,142,B,58.728882894340686,66.09687334573805,2.9364441447170346,1.0382472586411282,B,717,Correct
2,new_learn,16,143,D,48.000264094058174,11.060957898372564,2.400013204702909,0.17374512037596623,B,2324,Incorrect
2,new_learn,16,144,D,42.07441596633326,5.86668740329204,2.1037207983166635,0.09215371023545027,C,3732,Incorrect
2,new_learn,16,145,A,22.266930766429265,49.80531726796614,1.1133465383214634,0.7823400941937564,A,440,Correct
2,new_learn,16,146,C,90.48905752312986,52.87154612631218,4.524452876156493,0.8305043044717813,D,3382,Incorrect
2,new_learn,16,147,A,44.690171661249344,59.078157576096665,2.234508583062467,0.9279975291434273,C,1099,Incorrect
2,new_learn,16,148,D,56.5693821688759,22.99178508853031,2.8284691084437945,0.36115411563521094,B,800,Incorrect
2,new_learn,16,149,C,83.08538830353838,29.60265379990971,4.154269415176919,0.46499739852279154,D,1349,Incorrect
2,new_learn,16,150,D,65.06725317884673,14.611718340662296,3.2533626589423363,0.22952033497673957,C,966,Incorrect
2,new_learn,16,151,C,60.574335097278876,66.35256401215672,3.028716754863944,1.0422636382371901,C,3546,Correct
2,new_learn,16,152,A,50.33918903830799,49.38408050151505,2.5169594519153997,0.7757233225392332,B,1454,Incorrect
2,new_learn,16,153,A,13.831785735912398,28.10336262966846,0.6915892867956199,0.4414465878926818,A,527,Correct
2,new_learn,16,154,B,48.089295930039775,55.617381996472474,2.4044647965019887,0.8736357934600757,A,747,Incorrect
2,new_learn,16,155,D,40.21085488784527,5.5097874237190965,2.0105427443922634,0.08654753846598673,B,2591,Incorrect
2,new_learn,16,156,B,67.60571618909081,85.61929554561662,3.3802858094545405,1.3449047494582123,D,5031,Incorrect
2,new_learn,16,157,C,67.08334725648146,45.65822170981701,3.3541673628240734,0.7171976694976757,C,1150,Correct
2,new_learn,16,158,C,80.3321422498184,46.51903941097942,4.01660711249092,0.7307193623279349,C,445,Correct
2,new_learn,16,159,A,26.87960744375508,23.239066453071086,1.3439803721877541,0.36503840222626566,A,759,Correct
2,new_learn,16,160,D,50.331440944875055,38.133536346941156,2.516572047243753,0.5990001882147484,C,660,Incorrect
2,new_learn,16,161,B,68.56045031431927,89.87866420952143,3.4280225157159636,1.411810755975482,C,2013,Incorrect
2,new_learn,16,162,B,38.24183896834668,96.3487238321385,1.912091948417334,1.5134422148689908,A,1127,Incorrect
2,new_learn,16,163,D,32.69061302585017,21.67440609812948,1.6345306512925084,0.3404607748440269,A,1389,Incorrect
2,new_learn,16,164,D,27.85678650995253,22.497065820498722,1.3928393254976266,0.3533830835450241,A,2749,Incorrect
2,new_learn,16,165,B,51.390906942555674,52.52396876240654,2.5695453471277836,0.8250445720067808,D,5641,Incorrect
2,new_learn,16,166,A,10.470382952372201,57.97121992698973,0.5235191476186101,0.9106097932113458,A,574,Correct
2,new_learn,16,167,A,33.55939440337569,71.90290787217447,1.6779697201687844,1.129448235714835,B,1491,Incorrect
2,new_learn,16,168,A,28.116754575712584,57.35780053481842,1.4058377287856292,0.9009742239312714,A,1918,Correct
2,new_learn,16,169,C,86.22198059651762,32.91232338118742,4.311099029825881,0.5169855667345499,B,1911,Incorrect
2,new_learn,16,170,B,37.708565061405096,88.54424712541336,1.8854282530702549,1.390849781434189,A,1163,Incorrect
2,new_learn,16,171,B,72.41975260665394,70.65863479878664,3.6209876303326975,1.109903239982761,C,4943,Incorrect
2,new_learn,16,172,A,13.011226387690314,53.11426601365145,0.6505613193845157,0.8343169395465071,A,661,Correct
2,new_learn,16,173,C,82.44159963370704,63.77149685952905,4.122079981685352,1.0017203302116051,C,5791,Correct
2,new_learn,16,174,B,37.118404175506306,63.88320514285018,1.8559202087753153,1.003475039822739,C,1212,Incorrect
2,new_learn,16,175,B,66.71936551257494,85.79866067182328,3.3359682756287468,1.3477222102722175,C,1620,Incorrect
2,new_learn,16,176,C,71.42535925548056,66.9938588299747,3.571267962774028,1.052337073679401,C,526,Correct
2,new_learn,16,177,A,39.92020225984343,41.90731750349569,1.9960101129921712,0.658278604003185,D,1613,Incorrect
2,new_learn,16,178,D,68.79556351320073,22.939132460065235,3.4397781756600363,0.3603270500813205,C,1356,Incorrect
2,new_learn,16,179,B,42.339649389633166,99.67754387290937,2.116982469481658,1.5657311977950321,A,745,Incorrect
2,new_learn,16,180,D,25.786864762117844,29.923955759599522,1.289343238105892,0.47004439790351926,A,690,Incorrect
2,new_learn,16,181,B,55.76361454264063,74.60502524051284,2.7881807271320316,1.1718929960823812,C,2191,Incorrect
2,new_learn,16,182,A,24.487924940311125,53.20237601103205,1.2243962470155563,0.8357009681489007,C,1060,Incorrect
2,new_learn,16,183,B,32.955422005385756,54.99250089217175,1.6477711002692876,0.8638201840268845,A,589,Incorrect
2,new_learn,16,184,C,68.54179052214643,51.81065522200562,3.4270895261073213,0.8138398691156324,C,654,Correct
2,new_learn,16,185,B,48.379806291123145,84.0694027396157,2.418990314556157,1.3205590901922917,B,1317,Correct
2,new_learn,16,186,B,41.19635407565363,79.13254376563648,2.0598177037826817,1.2430110907699818,B,760,Correct
2,new_learn,16,187,A,14.033920722624101,28.27822792829207,0.701696036131205,0.44419336558030037,A,586,Correct
2,new_learn,16,188,C,71.64572280818412,64.3563175558742,3.582286140409206,1.010906672228131,C,734,Correct
2,new_learn,16,189,D,66.95998861145213,25.702970519293736,3.347999430572606,0.4037413167942412,C,1420,Incorrect
2,new_learn,16,190,B,38.834249077970185,57.094863304137974,1.9417124538985093,0.8968440155699666,B,1230,Correct
2,new_learn,16,191,D,27.90679159711911,16.570291544598753,1.3953395798559556,0.26028553092176254,D,1288,Correct
2,new_learn,16,192,B,34.83909845523634,81.92079328736806,1.7419549227618172,1.2868088118392176,B,718,Correct
2,new_learn,16,193,C,98.59012183371962,59.41122038069434,4.929506091685981,0.9332292674439677,C,730,Correct
2,new_learn,16,194,A,46.22710395417878,44.16409870992011,2.311355197708939,0.6937280402974975,B,528,Incorrect
2,new_learn,16,195,C,53.292540678242574,51.204042023001215,2.6646270339121285,0.8043112112678185,B,1500,Incorrect
2,new_learn,16,196,D,75.77803227787383,27.96867605027801,3.7889016138936915,0.4393309360509309,C,583,Incorrect
2,new_learn,16,197,B,39.111899769882214,99.3465603434991,1.9555949884941106,1.5605321206727594,D,2309,Incorrect
2,new_learn,16,198,D,49.27727800919753,14.713487014705205,2.4638639004598764,0.23111891357043343,C,734,Incorrect
2,new_learn,16,199,D,55.597477920362344,30.62216827233447,2.7798738960181173,0.4810118944067821,C,563,Incorrect
2,new_learn,16,200,B,38.932401218405644,81.82079269563889,1.9466200609202822,1.2852380062175626,B,1142,Correct
2,new_learn,16,201,D,23.728541082662506,26.77563140573359,1.1864270541331252,0.420590634597404,B,2509,Incorrect
2,new_learn,16,202,C,82.5682965405418,64.02447130530221,4.12841482702709,1.0056940435135397,C,644,Correct
2,new_learn,16,203,B,32.8742678527142,76.89542362708505,1.6437133926357097,1.207870489807627,D,2129,Incorrect
2,new_learn,16,204,A,2.3094656531307542,43.01767014523594,0.11547328265653771,0.675719982514111,A,612,Correct
2,new_learn,16,205,B,39.410529624505706,90.12261115516606,1.9705264812252852,1.415642665636996,B,7293,Correct
2,new_learn,16,206,B,33.56561597163308,69.86757729337589,1.678280798581654,1.0974773377449336,B,1118,Correct
2,new_learn,16,207,C,63.25155546072761,40.35447278423415,3.1625777730363804,0.6338865761921962,C,717,Correct
2,new_learn,16,208,C,62.88006329308839,30.962563882370212,3.1440031646544195,0.48635881614579457,C,725,Correct
2,new_learn,16,209,D,57.032633370499404,27.288004967094867,2.85163166852497,0.4286389796787351,C,660,Incorrect
2,new_learn,16,210,C,61.66029865980839,58.61089479842738,3.0830149329904195,0.9206577825953184,C,598,Correct
2,new_learn,16,211,B,37.97135168549503,63.50524404391525,1.8985675842747514,0.9975380407639555,D,1509,Incorrect
2,new_learn,16,212,C,69.33206598307021,39.4729424089011,3.4666032991535105,0.6200395294368835,C,558,Correct
2,new_learn,16,213,B,63.209502046375924,94.34627908402811,3.1604751023187965,1.4819878863195755,C,992,Incorrect
2,new_learn,16,214,D,70.13731907874705,38.992946331154,3.5068659539373526,0.6124997686788725,C,467,Incorrect
2,new_learn,16,215,A,13.216185498391328,45.304355164774606,0.6608092749195664,0.7116391468063935,A,558,Correct
2,new_learn,16,216,B,69.84810928818244,90.30323528720359,3.4924054644091225,1.4184799028683468,C,581,Incorrect
2,new_learn,16,217,C,72.41830980498935,76.13462765758621,3.6209154902494674,1.1959199346643354,C,607,Correct
2,new_learn,16,218,D,30.01702900926535,29.792648926480485,1.5008514504632675,0.4679818349920546,B,1555,Incorrect
2,new_learn,16,219,B,49.12649043952537,66.46829604131588,2.4563245219762684,1.0440815527001475,C,744,Incorrect
2,new_learn,16,220,B,41.92252753963901,96.7466456783246,2.096126376981951,1.5196927566123966,D,4574,Incorrect
2,new_learn,16,221,A,31.963076290312856,70.61102228556227,1.5981538145156429,1.1091553443739381,B,4043,Incorrect
2,new_learn,16,222,C,79.83829742833352,74.30715111495495,3.991914871416676,1.1672140002596454,C,592,Correct
2,new_learn,16,223,C,72.82524135424723,60.00048759552914,3.6412620677123613,0.9424854552095993,C,588,Correct
2,new_learn,16,224,B,29.77643702836806,63.12285279530346,1.488821851418403,0.9915314530767764,B,1461,Correct
2,new_learn,16,225,A,7.685219470654168,65.69580852504018,0.3842609735327084,1.0319473471695397,A,574,Correct
2,new_learn,16,226,B,51.83459108699954,57.12696274888995,2.5917295543499765,0.8973482324690524,C,590,Incorrect
2,new_learn,16,227,B,30.02364419730098,65.79032666593125,1.5011822098650491,1.0334320346548114,B,678,Correct
2,new_learn,16,228,A,15.581914926777568,43.96414051509224,0.7790957463388785,0.6905871043180158,A,710,Correct
2,new_learn,16,229,C,87.91403728510193,33.8435073445314,4.395701864255097,0.5316125702264602,C,669,Correct
2,new_learn,16,230,C,83.0517569376901,43.843580190537516,4.152587846884505,0.6886933471683382,C,614,Correct
2,new_learn,16,231,A,13.65267399486107,40.7937961503955,0.6826336997430534,0.6407874514906104,A,596,Correct
2,new_learn,16,232,C,82.24136220476163,72.18831120379052,4.112068110238082,1.1339313407644103,C,629,Correct
2,new_learn,16,233,B,35.511293135232236,71.3664480723747,1.7755646567616117,1.1210215448848488,B,1472,Correct
2,new_learn,16,234,C,85.48243338681254,25.533263137306275,4.274121669340627,0.40107555947168233,C,517,Correct
2,new_learn,16,235,D,42.548525935084925,46.01206896838276,2.127426296754246,0.7227558892376909,B,782,Incorrect
2,new_learn,16,236,D,47.75332109082626,51.04707989136698,2.387666054541313,0.8018456558696486,B,997,Incorrect
2,new_learn,16,237,A,19.87542033957823,38.500723860533725,0.9937710169789115,0.60476795619071,A,636,Correct
2,new_learn,16,238,A,32.07643275383803,33.46217279957983,1.6038216376919012,0.525622581201561,D,935,Incorrect
2,new_learn,16,239,A,24.022301309116305,59.928015047463546,1.2011150654558151,0.9413470590866504,B,1003,Incorrect
2,new_learn,16,240,B,48.98560541828162,90.21396118414246,2.4492802709140813,1.4170775885366838,B,2740,Correct
2,new_learn,16,241,C,66.94146700792243,36.41503033505424,3.3470733503961214,0.5720059589042794,C,495,Correct
2,new_learn,16,242,C,73.18973414603958,41.13009976774474,3.6594867073019794,0.6460700963588106,C,405,Correct
2,new_learn,16,243,C,77.67722873548816,39.043172989699514,3.8838614367744078,0.6132887271863772,C,565,Correct
2,new_learn,16,244,C,91.07864562689558,70.24336571107811,4.553932281344779,1.1033802084067208,C,574,Correct
2,new_learn,16,245,D,27.82299051936438,28.20071559038147,1.3911495259682192,0.4429758046235878,A,853,Incorrect
2,new_learn,16,246,D,73.6303519679572,31.298474453414293,3.68151759839786,0.4916352870570708,C,517,Incorrect
2,new_learn,16,247,D,30.48117725084492,21.248153096589363,1.5240588625422458,0.3337652083529818,D,1750,Correct
2,new_learn,16,248,C,81.19135399028306,41.81818425393399,4.059567699514153,0.6568785021931169,C,564,Correct
2,new_learn,16,249,B,28.828497069500575,60.9712638005519,1.441424853475029,0.9577343721794956,A,3037,Incorrect
2,new_learn,16,250,A,6.258281288138502,66.13350456383463,0.3129140644069251,1.0388226604694497,A,580,Correct
2,new_learn,16,251,B,56.45799008228093,100.08027664448022,2.8228995041140466,1.5720573093776662,B,1559,Correct
2,new_learn,16,252,B,48.333882174180104,55.5183567341905,2.416694108709005,0.8720803082775515,D,1654,Incorrect
2,new_learn,16,253,D,61.938137277015045,34.78874945451442,3.096906863850752,0.5464603985693921,C,755,Incorrect
2,new_learn,16,254,A,5.033866294404913,53.09299126583022,0.25169331472024564,0.8339827565891963,A,568,Correct
2,new_learn,16,255,C,61.31170164661164,51.88102777709629,3.065585082330582,0.8149452786260685,B,1253,Incorrect
2,new_learn,16,256,D,46.062861335296404,32.01218731481853,2.3031430667648203,0.5028462624678713,B,1155,Incorrect
2,new_learn,16,257,A,30.891452624395416,26.781020474909514,1.544572631219771,0.42067528589806774,D,872,Incorrect
2,new_learn,16,258,D,62.33586083681125,37.20118898851958,3.1167930418405625,0.5843549101556931,C,3788,Incorrect
2,new_learn,16,259,B,64.84857836905216,64.22844534065513,3.2424289184526085,1.0088980601684787,C,805,Incorrect
2,new_learn,16,260,B,41.38121937910778,70.55357203288504,2.069060968955389,1.1082529179151497,B,861,Correct
2,new_learn,16,261,A,17.68517553850668,67.0079446899628,0.8842587769253341,1.0525583338506914,A,638,Correct
2,new_learn,16,262,A,40.378827813491384,56.6884994505393,2.0189413906745695,0.8904608670842163,B,916,Incorrect
2,new_learn,16,263,A,11.335145248670829,42.921907920645765,0.5667572624335414,0.6742157530077914,A,525,Correct
2,new_learn,16,264,B,43.53009636146543,52.55674987858275,2.176504818073272,0.8255594965755592,B,3218,Correct
2,new_learn,16,265,A,46.00217269988717,58.83994039096822,2.3001086349943587,0.9242556223496355,C,595,Incorrect
2,new_learn,16,266,C,68.72620371803768,48.95451957545419,3.4363101859018843,0.7689757952913231,C,485,Correct
2,new_learn,16,267,D,46.0596652719296,29.025384978432758,2.30298326359648,0.4559296810792995,C,358,Incorrect
2,new_learn,16,268,C,77.66094258470642,63.65470389533638,3.8830471292353206,0.9998857506201118,C,524,Correct
2,new_learn,16,269,B,31.245698011755945,77.92449785468649,1.5622849005877972,1.2240351499747835,D,1636,Incorrect
2,new_learn,16,270,A,31.916530269403303,56.99021396195067,1.595826513470165,0.8952001875468736,B,2328,Incorrect
2,new_learn,16,271,C,81.97430216298669,52.13821676266128,4.098715108149334,0.8189851937642445,C,643,Correct
2,new_learn,16,272,B,28.02735807565799,74.23827666158364,1.4013679037828997,1.1661321228759887,A,3911,Incorrect
2,new_learn,16,273,B,42.967548652493946,52.661425465612126,2.1483774326246974,0.8272037368516675,C,494,Incorrect
2,new_learn,16,274,C,53.86700711881102,63.53634290671527,2.6933503559405505,0.9980265405584934,C,518,Correct
2,new_learn,16,275,D,46.751612905513255,26.929084115895883,2.3375806452756627,0.4230010641320004,C,517,Incorrect
2,new_learn,16,276,C,96.1167095254998,55.44553143392189,4.80583547627499,0.8709363711359548,C,524,Correct
2,new_learn,16,277,C,70.53320475586618,42.65263732134178,3.5266602377933087,0.6699860603247858,C,582,Correct
2,new_learn,16,278,B,56.821391800097224,85.99033222985477,2.8410695900048615,1.3507329800652867,B,1756,Correct
2,new_learn,16,279,A,11.75589778313006,60.32577433618209,0.587794889156503,0.9475950473833267,A,537,Correct
2,new_learn,16,280,B,68.5166845948646,70.05772865273904,3.4258342297432303,1.1004642283131607,C,1014,Incorrect
2,new_learn,16,281,C,72.87099410097123,70.76001602673094,3.643549705048562,1.1114957325873698,C,701,Correct
2,new_learn,16,282,A,39.26465311715826,41.6290407993458,1.9632326558579132,0.6539074437560726,B,1052,Incorrect
2,new_learn,16,283,A,33.356811064135215,51.67230963962495,1.6678405532067608,0.8116667417893139,D,661,Incorrect
2,new_learn,16,284,B,54.85393518983084,90.04301538166328,2.742696759491542,1.4143923781505305,C,711,Incorrect
2,new_learn,16,285,D,63.305573616355645,19.934041638350838,3.1652786808177824,0.3131231938369802,C,838,Incorrect
2,new_learn,16,286,B,47.388167264640536,88.23070707423636,2.369408363232027,1.3859247058272697,B,1090,Correct
2,new_learn,16,287,C,53.58617410824327,43.94761606742357,2.679308705412163,0.6903275389010132,D,3702,Incorrect
2,new_learn,16,288,B,59.59452076050516,53.5089426078031,2.979726038025258,0.8405165049901604,B,1558,Correct
2,new_learn,16,289,D,46.08704930098179,13.78080721464718,2.3043524650490896,0.216468413530364,B,775,Incorrect
2,new_learn,16,290,A,14.084490526864313,55.97766963631017,0.7042245263432156,0.8792951784725422,A,587,Correct
2,new_learn,16,291,D,57.76833951262435,43.8807094816688,2.888416975631218,0.6892765727095935,D,1636,Correct
2,new_learn,16,292,A,23.327052753055952,43.69209335842123,1.1663526376527975,0.6863137975738778,A,2223,Correct
2,new_learn,16,293,D,75.32079967792501,19.194261460199947,3.766039983896251,0.30150275397222925,C,444,Incorrect
2,new_learn,16,294,B,30.65703612906832,68.31171180408246,1.532851806453416,1.073037859789243,B,998,Correct
2,new_learn,16,295,C,65.25079343137475,50.12777945117337,3.2625396715687374,0.7874053183228783,C,830,Correct
2,new_learn,16,296,B,75.27123896254452,80.08836633585176,3.763561948127226,1.2580251165935998,C,695,Incorrect
2,new_learn,16,297,B,39.99882277057617,80.91109684643799,1.9999411385288084,1.2709485372333094,D,3610,Incorrect
2,new_learn,16,298,A,50.01085748474998,46.777516795211085,2.5005428742374987,0.7347795155850415,C,576,Incorrect
2,new_learn,16,299,C,98.13696356019346,40.15809822201128,4.906848178009673,0.6308019317820399,C,535,Correct
2,new_learn,16,300,B,71.25290754625959,82.87212227211486,3.56264537731298,1.3017522525873557,B,790,Incorrect
2,new_learn,16,301,D,31.005232162877757,41.85221884659633,1.5502616081438878,0.6574131163244965,A,597,Incorrect
2,new_learn,16,302,D,64.13582709305916,22.943087511495293,3.206791354652958,0.36038917588390673,C,4869,Incorrect
2,new_learn,16,303,C,58.648033320422286,44.47169338685316,2.9324016660211147,0.6985597261841785,C,3948,Incorrect
2,new_learn,16,304,A,12.948772416222281,29.459563208392726,0.647438620811114,0.4627497367672537,A,552,Incorrect
2,new_learn,16,305,B,65.9159971957574,62.28504114034468,3.2957998597878704,0.9783711383752245,B,782,Correct
2,new_learn,16,306,B,27.16685068671304,69.40062128291571,1.358342534335652,1.090142409884877,A,517,Incorrect
2,new_learn,16,307,D,47.99274964994621,-0.31322407378335626,2.3996374824973103,-0.004920112245626296,B,1694,Incorrect
2,new_learn,16,308,A,35.509470152724525,59.56847874046165,1.7754735076362262,0.9356994759827706,C,756,Incorrect
2,new_learn,16,309,D,62.93734701855982,46.836232896792694,3.146867350927991,0.7357018259519227,C,540,Incorrect
2,new_learn,16,310,B,61.68889324249372,57.93075094895198,3.0844446621246857,0.9099741079908374,C,541,Incorrect
2,new_learn,16,311,C,91.99892204742697,61.935322949118856,4.599946102371349,0.9728777778733156,C,580,Incorrect
2,new_learn,16,312,A,5.227869177343685,33.786762200360855,0.26139345886718424,0.5307212195861948,A,632,Correct
2,new_learn,16,313,B,43.223290681174085,51.47125969491313,2.1611645340587042,0.8085086566427576,D,1549,Incorrect
2,new_learn,16,314,B,40.61884849648803,93.74809685351448,2.0309424248244015,1.4725916618151278,B,788,Correct
2,new_learn,16,315,C,64.41345268265279,48.04026762767763,3.2206726341326397,0.754614759277998,D,1896,Incorrect
2,new_learn,16,316,B,27.608595816037266,64.65599607153572,1.3804297908018635,1.015614011344336,A,547,Incorrect
2,new_learn,16,317,D,40.63010759911161,45.96362515656851,2.031505379955581,0.7219949356211532,C,1576,Incorrect
2,new_learn,16,318,A,42.327623149465225,49.20835844139149,2.1163811574732616,0.7729630868734438,B,1196,Incorrect
2,new_learn,16,319,A,36.05798894875717,37.87690510483062,1.8028994474378583,0.5949690340902681,D,496,Incorrect
2,new_learn,16,320,D,54.08888943384143,18.950506731040345,2.7044444716920713,0.2976738636402014,A,804,Incorrect
2,new_learn,16,321,D,67.0654548331998,44.309307175668465,3.35327274165999,0.6960089695436678,C,741,Incorrect
2,new_learn,16,322,C,86.47433434902472,49.95235980639075,4.323716717451236,0.7846498329861562,C,1025,Incorrect
2,new_learn,16,323,A,38.41733552036398,64.591515115602,1.9208667760181988,1.0146011468570464,D,3764,Correct
2,new_learn,16,324,B,64.32928776554961,96.38184289064705,3.2164643882774806,1.5139624478235119,C,2085,Incorrect
2,new_learn,16,325,D,66.2601629337986,41.185837893555906,3.31300814668993,0.6469456287916768,C,3767,Correct
2,new_learn,16,326,A,40.109884146107404,32.00745955868807,2.00549420730537,0.5027719990482342,B,1199,Incorrect
2,new_learn,16,327,C,54.38684348634146,60.66454824737577,2.7193421743170734,0.9529164955364964,C,539,Correct
2,new_learn,16,328,B,57.34141823604613,85.10795316007264,2.8670709118023066,1.336872602048742,C,607,Incorrect
2,new_learn,16,329,C,90.77964037083005,41.36631983761179,4.538982018541502,0.6497806325394345,C,1109,Correct
2,new_learn,16,330,D,63.370705041234,26.460706291130354,3.1685352520617,0.41564380246506166,C,7149,Incorrect
2,new_learn,16,331,D,36.183498494848514,12.613232018574081,1.8091749247424258,0.19812818523787945,D,1893,Correct
2,new_learn,16,332,D,57.41064022921249,0.6807737497778383,2.8705320114606248,0.010693569055294165,B,4503,Incorrect
2,new_learn,16,333,B,44.40181526420862,51.68764866212307,2.2200907632104308,0.8119076865912805,C,1444,Incorrect
2,new_learn,16,334,C,88.6184891872774,41.71937722358151,4.430924459363871,0.655326444989725,C,654,Incorrect
2,new_learn,16,335,D,65.85306060610527,45.02377355811636,3.2926530303052637,0.7072317812353437,C,487,Incorrect
2,new_learn,16,336,B,44.57082079565864,70.4965772410368,2.228541039782932,1.1073576458183332,C,365,Correct
2,new_learn,16,337,C,88.14006087798396,62.78860982389972,4.407003043899198,0.9862811767593963,C,596,Correct
2,new_learn,16,338,B,44.19550776174689,55.9071553552761,2.2097753880873445,0.8781875427361935,C,2011,Incorrect
2,new_learn,16,339,C,61.50921513215568,70.93618800556088,3.075460756607784,1.1142630355596723,C,743,Correct
2,new_learn,16,340,B,35.886312430239364,97.03572565901892,1.7943156215119682,1.5242336143306423,B,1030,Correct
2,new_learn,16,341,A,2.970019567144231,35.73245355675931,0.14850097835721154,0.5612840679432676,A,564,Incorrect
2,new_learn,16,342,D,44.52354708513233,16.90440135651774,2.2261773542566163,0.26553371557484734,D,1308,Correct
2,new_learn,16,343,A,23.903822716074863,65.98827600423708,1.1951911358037433,1.0365414155898343,C,1169,Incorrect
2,new_learn,16,344,B,31.638670442495528,74.2244319082067,1.5819335221247763,1.16591464999849,B,716,Correct
2,new_learn,16,345,A,15.332205056092596,28.955951651678838,0.7666102528046298,0.4548390249330774,A,695,Incorrect
2,new_learn,16,346,D,52.8639131083942,39.03392154018556,2.6431956554197096,0.6131434057572367,C,1107,Correct
2,new_learn,16,347,A,20.89014397579608,60.07432638854333,1.044507198789804,0.943645312258016,A,1167,Incorrect
2,new_learn,16,348,C,96.06883792922096,57.52124362191605,4.803441896461049,0.9035415819398012,C,771,Incorrect
2,new_learn,16,349,A,37.968256516414016,39.893193218444,1.8984128258207007,0.6266408137165091,D,1110,Incorrect
2,new_learn,16,350,B,57.76659827635872,77.77489432363139,2.8883299138179357,1.2216851832042144,C,622,Incorrect
2,new_learn,16,351,D,29.36782893224132,30.073844412345565,1.468391446612066,0.4723988433551364,C,2206,Incorrect
2,new_learn,16,352,B,41.043056311456894,97.27132875302107,2.052152815572845,1.527934459077043,B,742,Correct
2,new_learn,16,353,B,26.43480424125952,81.48013596838442,1.321740212062976,1.2798869828588697,C,660,Incorrect
2,new_learn,16,354,D,40.433561034095796,40.1995529863059,2.02167805170479,0.6314531016968612,C,1615,Incorrect
2,new_learn,16,355,A,37.352065296013606,67.47597536852282,1.8676032648006804,1.0599101425577857,C,1487,Incorrect
2,new_learn,16,356,C,83.29136417619154,51.39743495995241,4.164568208809577,0.8073490204177285,C,547,Correct
2,new_learn,16,357,D,54.13727782222716,10.833779245601553,2.706863891111358,0.17017660644297705,D,1005,Incorrect
2,new_learn,16,358,C,55.869314407212855,35.1697686764117,2.793465720360643,0.5524454345113371,C,711,Correct
2,new_learn,16,359,D,26.30119272340412,34.237263938477476,1.315059636170206,0.537797684340678,B,989,Incorrect
2,new_learn,16,360,D,45.15831072175271,36.1749905557332,2.2579155360876357,0.5682354228678579,C,461,Incorrect
2,new_learn,16,361,A,39.48133452961774,52.32899794213073,1.974066726480887,0.8219819775235665,D,11272,Incorrect
2,new_learn,16,362,C,90.63083058677901,61.949476793988254,4.53154152933895,0.9731001059486245,C,670,Incorrect
2,new_learn,16,363,B,45.75082211222199,72.08750050658041,2.2875411056110995,1.1323478100356175,B,3372,Incorrect
2,new_learn,16,364,A,23.173985183946034,44.35701910185959,1.1586992591973015,0.6967584267277211,A,703,Correct
2,new_learn,16,365,A,14.153151449353734,56.494924712954216,0.7076575724676867,0.887420202216627,A,372,Correct
2,new_learn,16,366,D,63.83458127597086,9.688956053254126,3.1917290637985434,0.1521937657892876,C,5390,Incorrect
2,new_learn,16,367,B,30.720771896340356,86.77835558202517,1.5360385948170179,1.3631112219354655,A,526,Correct
2,new_learn,16,368,C,56.65843182764661,32.09743533481574,2.8329215913823305,0.5041853352346528,C,1550,Correct
2,new_learn,16,369,A,22.957616364620257,23.53068159093791,1.147880818231013,0.36961908210025557,A,789,Correct
2,new_learn,16,370,B,39.095189165168236,64.77175693586558,1.9547594582584116,1.0174323787490953,C,926,Incorrect
2,new_learn,16,371,A,23.83415738150306,31.41022400055644,1.191707869075153,0.4933906448387896,B,526,Incorrect
2,new_learn,16,372,C,90.61571604409181,41.0757755625218,4.530785802204591,0.6452167737386082,C,595,Incorrect
2,new_learn,16,373,D,35.52396103190388,3.266949365697979,1.7761980515951938,0.05131712063463303,D,1095,Incorrect
2,new_learn,16,374,B,59.47128936017747,55.165323401784505,2.9735644680088735,0.8665348736597565,C,1332,Incorrect
2,new_learn,16,375,D,55.82471260339229,24.29427824202708,2.7912356301696146,0.3816136302470931,C,3117,Incorrect
2,new_learn,16,376,B,44.057480039047945,70.80283072813768,2.2028740019523974,1.1121682643443949,C,527,Incorrect
2,new_learn,16,377,B,70.00555747137716,80.46461753868407,3.5002778735688582,1.2639352566672115,C,581,Incorrect
2,new_learn,16,378,C,80.3047232586473,68.73657432734691,4.015236162932365,1.0797115846986094,C,407,Correct
2,new_learn,16,379,B,64.36174194258089,58.84032484354758,3.218087097129045,0.9242616613166303,C,454,Correct
2,new_learn,16,380,C,60.05897317603463,65.95543959982567,3.0029486588017313,1.036025622555488,C,419,Incorrect
2,new_learn,16,381,D,51.460582911130025,10.003144907777394,2.5730291455565015,0.15712903277533805,D,3865,Incorrect
2,new_learn,16,382,C,71.46305863804508,75.33258337229104,3.5731529319022544,1.1833214524916507,C,666,Correct
2,new_learn,16,383,C,87.76677392618498,43.779092628329266,4.388338696309249,0.6876803789099314,C,535,Incorrect
2,new_learn,16,384,C,98.8610284551505,43.56115934467206,4.9430514227575255,0.6842570908953807,C,439,Incorrect
2,new_learn,16,385,A,44.54276214019266,67.56296671670145,2.2271381070096328,1.061276599459605,C,3141,Incorrect
2,new_learn,16,386,B,59.56561856444939,88.64606098244518,2.9782809282224694,1.392449069760613,C,581,Incorrect
2,new_learn,16,387,D,69.9593473914779,27.67210658372125,3.497967369573895,0.4346724337638621,C,1085,Incorrect
2,new_learn,16,388,C,65.30625669288186,42.76199295618815,3.2653128346440927,0.6717038146200959,D,823,Incorrect
2,new_learn,16,389,A,28.242211841007332,28.568330583852987,1.4121105920503667,0.4487502874377858,A,719,Incorrect
2,new_learn,16,390,D,51.24521614123042,4.868049309512479,2.5622608070615214,0.07646713974038634,B,4219,Incorrect
2,new_learn,16,391,A,21.10407572289354,63.42475307862328,1.055203786144677,0.9962736916377476,B,672,Incorrect
2,new_learn,16,392,B,65.05519421041866,94.65428659264595,3.2527597105209334,1.486826056951197,B,949,Incorrect
2,new_learn,16,393,C,78.0027094545024,42.04068163018193,3.9001354727251196,0.6603734828064346,C,589,Incorrect
2,new_learn,16,394,C,85.08780995045406,47.68221164205874,4.254390497522703,0.7489904290080273,C,740,Incorrect
2,new_learn,16,395,D,55.74725243671475,14.693693665813393,2.787362621835738,0.23080800037309118,D,2111,Correct
2,new_learn,16,396,B,37.507025084053794,96.95143545496353,1.8753512542026898,1.5229095869014921,B,807,Correct
2,new_learn,16,397,C,78.77769162968372,34.74039108735981,3.938884581484186,0.5457007871144296,C,596,Correct
2,new_learn,16,398,D,49.78088241503032,15.99641969811999,2.4890441207515157,0.25127117303676405,C,1109,Incorrect
2,new_learn,16,399,D,50.7280351039325,0.9744158377650507,2.536401755196625,0.015306088187321137,D,645,Correct
2,new_learn,16,400,C,92.64837509663947,59.531700607628,4.632418754831973,0.9351217664231557,C,757,Incorrect
2,new_learn,16,401,D,62.60293112389095,32.31902538562805,3.1301465561945476,0.5076660636133556,D,916,Correct
2,new_learn,16,402,B,63.527347951449244,73.84386970244536,3.1763673975724624,1.1599367928492212,B,1623,Correct
2,new_learn,16,403,C,69.28501409068836,59.094228726074626,3.464250704534418,0.9282499741769548,B,1003,Incorrect
2,new_learn,16,404,D,33.9388304461972,15.211395432778984,1.6969415223098598,0.23894004071233893,C,837,Incorrect
2,new_learn,16,405,D,27.154705570417452,28.60814511760144,1.3577352785208725,0.44937569267143695,C,1599,Incorrect
2,new_learn,16,406,C,49.09051819198073,46.06768699687372,2.4545259095990364,0.7236295351862626,B,1175,Incorrect
2,new_learn,16,407,A,22.46108001234645,38.75072758997809,1.1230540006173226,0.6086950055896724,D,967,Correct
2,new_learn,16,408,D,37.754373853423004,7.0360048260678205,1.8877186926711502,0.11052130536098496,D,644,Correct
2,new_learn,16,409,D,59.017178499755786,43.08712066136188,2.9508589249877897,0.6768109086703573,D,813,Incorrect
2,new_learn,16,410,C,86.55566548001894,58.06931751766321,4.327783274000947,0.9121507065623191,C,2853,Incorrect
2,new_learn,16,411,D,68.96779657813025,15.826378091720633,3.448389828906512,0.24860016572941995,C,1960,Correct
2,new_learn,16,412,C,69.77396382354726,69.48559022861497,3.488698191177363,1.0914770989628375,C,805,Correct
2,new_learn,16,413,B,49.35086423297338,87.49350573211238,2.467543211648669,1.3743447742241035,D,1103,Incorrect
2,new_learn,16,414,D,65.6888441106072,24.169444089767865,3.28444220553036,0.3796527399688199,C,567,Incorrect
2,new_learn,16,415,A,30.8565879563432,74.51624176147915,1.54282939781716,1.1704983884549192,B,2235,Incorrect
2,new_learn,16,416,C,99.09678189402649,39.81395077377669,4.954839094701325,0.6253960763064126,C,654,Correct
2,new_learn,16,417,D,49.94976970328285,41.29113473457015,2.4974884851641423,0.6485996277025596,D,886,Correct
2,new_learn,16,418,D,49.83024954722968,19.857551345452617,2.491512477361484,0.3119216871257803,D,597,Incorrect
2,new_learn,16,419,A,8.59871056914422,34.65283591846726,0.429935528457211,0.5443254737375463,A,615,Correct
2,new_learn,16,420,C,55.31658815180387,59.18161068953944,2.7658294075901937,0.9296225668493414,C,2508,Incorrect
2,new_learn,16,421,A,9.865966677245645,37.892639863704986,0.4932983338622822,0.5952161951046966,A,566,Correct
2,new_learn,16,422,C,86.7052610790881,62.42327211069868,4.335263053954406,0.9805424653800381,C,1854,Correct
2,new_learn,16,423,A,30.649582447329173,32.13764531867068,1.5324791223664587,0.5048169521840511,D,788,Correct
2,new_learn,16,424,A,9.101093102863468,69.95969554559493,0.45505465514317334,1.098924327867098,A,615,Correct
2,new_learn,16,425,B,55.14102618707516,70.45618931294032,2.757051309353758,1.1067232337273252,B,2629,Correct
2,new_learn,16,426,A,3.458770515018518,50.01338934241438,0.1729385257509259,0.7856084826962753,A,565,Incorrect
2,new_learn,16,427,A,49.505296870180054,52.96687672033976,2.4752648435090028,0.8320017539410781,C,1630,Incorrect
2,new_learn,16,428,D,32.91581896747753,44.83266433720618,1.6457909483738762,0.7042298446131203,B,1686,Correct
2,new_learn,16,429,B,60.00420555377106,50.61936722870408,3.0002102776885526,0.7951271610753033,C,533,Incorrect
2,new_learn,16,430,D,28.575608642597498,32.99436203193348,1.4287804321298747,0.5182742268470211,D,1413,Incorrect
2,new_learn,16,431,B,48.25277942580384,96.09474303571002,2.412638971290192,1.509452693847928,C,625,Incorrect
2,new_learn,16,432,B,25.513151503732324,67.41379253931548,1.2756575751866164,1.0589333769606997,C,364,Incorrect
2,new_learn,16,433,A,14.920657650040638,62.180221992340115,0.7460328825020319,0.9767246430485909,B,477,Incorrect
2,new_learn,16,434,D,24.362423519490054,21.135467202657807,1.2181211759745028,0.3319951424702889,C,735,Incorrect
2,new_learn,16,435,C,61.4501886879741,60.82786149084276,3.0725094343987047,0.9554818139660455,C,383,Incorrect
2,new_learn,16,436,C,83.86950709356557,47.824798693858796,4.193475354678279,0.7512301811801876,C,883,Correct
2,new_learn,16,437,A,23.131314465197487,47.23602046639365,1.1565657232598745,0.7419816744101969,D,1318,Incorrect
2,new_learn,16,438,A,36.06721450439731,66.91280612010024,1.8033607252198658,1.0510639006899254,B,1749,Incorrect
2,new_learn,16,439,A,3.4811483838264508,60.9740531689026,0.17405741919132253,0.9577781874750892,A,588,Incorrect
2,new_learn,16,440,A,38.50914430246106,26.92542066998485,1.9254572151230531,0.42294351885819587,B,1718,Incorrect
2,new_learn,16,441,C,70.31730409543225,48.1804960192627,3.5158652047716124,0.7568174617021398,C,542,Incorrect
2,new_learn,16,442,B,37.91291491747368,66.98573265631032,1.8956457458736837,1.052209428041972,C,462,Incorrect
2,new_learn,16,443,A,44.41144221347377,45.781037025132136,2.2205721106736886,0.7191268479593872,C,754,Correct
2,new_learn,16,444,C,52.90806959272636,36.10196631632884,2.645403479636318,0.5670883607976241,D,2424,Incorrect
2,new_learn,16,445,C,91.52612782761146,68.92006556900121,4.576306391380573,1.0825938583825052,C,605,Incorrect
2,new_learn,16,446,B,30.0973046969941,66.01536474875823,1.5048652348497051,1.0369669245937474,B,695,Incorrect
2,new_learn,16,447,A,23.923985892311986,38.151287783781314,1.1961992946155993,0.599279027132587,C,573,Incorrect
2,new_learn,16,448,A,30.715358290284676,56.86877338775608,1.535767914514234,0.8932926034681861,C,654,Incorrect
2,new_learn,16,449,D,50.31531965153023,6.971858730936582,2.5157659825765113,0.10951370085488112,C,583,Incorrect
2,new_learn,16,450,C,96.52907287148756,37.781859048099186,4.826453643574378,0.5934760541223673,C,587,Correct
2,new_learn,16,451,C,91.32985296219596,43.75108101462528,4.566492648109798,0.6872403735107931,C,702,Incorrect
2,new_learn,16,452,B,61.654474521725376,87.77968044275012,3.082723726086269,1.378839996067017,B,623,Incorrect
2,new_learn,16,453,C,62.92001007575533,73.65699132693754,3.1460005037877665,1.1570013141911706,D,204,Incorrect
2,new_learn,16,454,D,43.79248812054395,28.1139453019859,2.189624406027198,0.44161282012072084,D,637,Incorrect
2,new_learn,16,455,C,99.37645804752752,39.0428176091288,4.968822902376377,0.6132831448814262,C,646,Incorrect
2,new_learn,16,456,C,93.89668091506513,56.42661682602354,4.6948340457532565,0.8863472244378089,C,447,Correct
2,new_learn,16,457,A,34.67138774201567,73.64136386543927,1.7335693871007833,1.1567558385999843,B,1819,Correct
2,new_learn,16,458,C,64.13464322396531,26.147288776334314,3.206732161198266,0.4107206516551137,C,518,Correct
2,new_learn,16,459,D,29.332488958310034,38.03420879898926,1.4666244479155017,0.5974399547400246,D,1598,Incorrect
2,new_learn,16,460,C,79.55297482015817,47.18536619222999,3.9776487410079087,0.7411859989322696,C,622,Incorrect
2,new_learn,16,461,C,77.46326555753488,54.26327075202644,3.873163277876744,0.8523654637716008,C,493,Incorrect
2,new_learn,16,462,B,74.40860019926255,71.2498051610791,3.7204300099631276,1.119189322318751,C,453,Correct
2,new_learn,16,463,C,66.0770992645071,44.72636005940764,3.3038549632253544,0.7025600209222349,C,439,Incorrect
2,new_learn,16,464,C,61.13974540399921,53.72149269197258,3.0569872701999605,0.8438552339048939,C,1180,Correct
2,new_learn,16,465,B,39.83605485627945,51.0041290987388,1.9918027428139726,0.801170986396716,D,1952,Incorrect
2,new_learn,16,466,C,88.41316748137407,47.3776243372684,4.420658374068704,0.744205982812497,C,645,Correct
2,new_learn,16,467,D,26.213077770368837,28.25283966547888,1.3106538885184418,0.4437945676805938,B,1812,Incorrect
2,new_learn,16,468,C,61.10444612538461,49.46935146513119,3.0552223062692305,0.7770627557035381,C,632,Incorrect
2,new_learn,16,469,D,28.726810567581012,8.832049069180435,1.4363405283790507,0.13873350235940915,D,1238,Correct
2,new_learn,16,470,B,60.56563922852206,99.01514840737725,3.028281961426103,1.5553263141535973,B,4645,Correct
2,new_learn,16,471,D,59.17671727215469,38.14456703838591,2.9588358636077343,0.5991734579107827,C,680,Incorrect
2,new_learn,16,472,B,64.87389536177646,79.13707028604445,3.2436947680888233,1.2430821931862817,C,517,Incorrect
2,new_learn,16,473,B,50.83934746899951,60.47857695616972,2.5419673734499755,0.9499952653253386,C,910,Incorrect
2,new_learn,16,474,B,30.243198779356305,67.14503954815115,1.5121599389678153,1.0547118148473387,B,1170,Incorrect
2,new_learn,16,475,C,58.42899512080152,30.18343617364198,2.921449756040076,0.47412030671605027,B,656,Correct
2,new_learn,16,476,A,26.196196348405383,68.82989481609937,1.3098098174202693,1.0811774595080799,B,540,Incorrect
2,new_learn,16,477,B,24.7889739439154,75.28641188950945,1.23944869719577,1.1825961925360908,C,478,Incorrect
2,new_learn,16,478,C,90.72035259698809,51.006654703025845,4.536017629849405,0.8012106584960863,D,431,Correct
2,new_learn,16,479,D,53.64136030408952,40.213768106361265,2.682068015204476,0.6316763922805404,C,323,Correct
2,new_learn,16,480,A,44.05468838464827,37.10843283458584,2.2027344192324136,0.5828978998968256,C,517,Incorrect
2,new_learn,16,481,B,60.88801365116814,60.61983469720521,3.0444006825584067,0.9522141367328376,D,2542,Incorrect
2,new_learn,16,482,D,30.722454426221436,15.48587649567603,1.5361227213110717,0.24325157916607332,C,356,Incorrect
2,new_learn,16,483,B,31.583399653135,65.18154692702842,1.57916998265675,1.0238693448778544,A,231,Correct
2,new_learn,16,484,D,73.65503402303354,25.503511437177313,3.682751701151677,0.4006082208588976,C,815,Incorrect
2,new_learn,16,485,D,62.07054563498639,46.077266948465706,3.1035272817493196,0.7237800167139783,B,436,Correct
2,new_learn,16,486,C,71.69175768625527,33.486807712348046,3.584587884312764,0.5260095455064332,B,560,Incorrect
2,new_learn,16,487,D,62.83829704691672,20.49334686511225,3.1419148523458365,0.3219087397945204,D,700,Incorrect
2,new_learn,16,488,C,62.666778719637705,46.85715155831866,3.133338935981885,0.7360304155187871,B,364,Incorrect
2,new_learn,16,489,A,20.777630356613237,49.72966320992254,1.0388815178306618,0.7811517230289363,C,272,Incorrect
2,new_learn,16,490,B,44.570684568375654,73.85776896083438,2.228534228418783,1.1601551218894477,A,284,Incorrect
2,new_learn,16,491,A,23.618979489045635,39.67085399355066,1.1809489744522819,0.6231483173388603,B,264,Incorrect
2,new_learn,16,492,A,29.349379247925743,34.3503472008539,1.467468962396287,0.5395739920723066,A,250,Incorrect
2,new_learn,16,493,B,33.63046309650876,63.29380454879484,1.6815231548254383,0.9942167569412106,D,166,Incorrect
2,new_learn,16,494,A,40.67290631240068,47.92947123820611,2.0336453156200336,0.7528743736619581,B,40,Incorrect
2,new_learn,16,495,D,42.90742739949751,6.709779425532833,2.1453713699748755,0.10539696875230946,C,890,Incorrect
2,new_learn,16,496,B,40.659493621733674,93.59407486312931,2.0329746810866838,1.4701722900477008,D,432,Incorrect
2,new_learn,16,497,B,29.828223398109987,85.60059776903339,1.4914111699054993,1.3446110454704507,B,253,Incorrect
2,new_learn,16,498,C,88.598205792691,47.14730569531349,4.429910289634551,0.7405881460447454,C,1534,Incorrect
2,new_learn,16,499,C,66.06255770494249,50.36547819392998,3.3031278852471244,0.7911390814429369,B,311,Correct
2,new_learn,16,500,D,38.7884637862436,33.37650134836425,1.9394231893121798,0.5242768571927547,B,365,Incorrect
2,new_learn,16,501,B,58.414998689588614,60.26851075505921,2.920749934479431,0.9466955531544572,C,246,Incorrect
2,new_learn,16,502,C,58.212801559685744,39.423078206107405,2.9106400779842874,0.6192562643710147,D,756,Incorrect
2,new_learn,16,503,B,45.64150287591188,99.79179880011625,2.2820751437955944,1.5675259099947798,B,616,Incorrect
2,new_learn,16,504,A,5.9886264255110255,38.70770233110243,0.2994313212755513,0.6080191664036596,A,658,Incorrect
2,new_learn,16,505,A,42.50032210715935,46.0992484740445,2.1250161053579673,0.7241253017103434,C,336,Incorrect
2,new_learn,16,506,C,56.01127268090277,60.96330823785218,2.8005636340451385,0.9576094064928325,B,587,Incorrect
2,new_learn,16,507,D,50.297305214651004,-0.6415428491704986,2.51486526073255,-0.010077331509585516,C,591,Incorrect
2,new_learn,16,508,D,48.88737641116817,5.041340691304523,2.444368820558408,0.07918919440022788,C,278,Correct
2,new_learn,16,509,D,31.13165780752784,21.844499544163007,1.556582890376392,0.34313259644644045,C,606,Incorrect
2,new_learn,16,510,D,26.372910950719234,35.120882129618714,1.3186455475359617,0.5516775264300159,B,1108,Incorrect
2,new_learn,16,511,D,60.19170397395203,5.636204194401511,3.0095851986976014,0.08853328845631882,C,518,Correct
2,new_learn,16,512,C,72.06010212646957,32.2270451815211,3.603005106323479,0.506221241945865,B,702,Incorrect
2,new_learn,16,513,D,49.52081048090179,8.56714556087734,2.4760405240450893,0.13457240778143328,C,1245,Incorrect
2,new_learn,16,514,C,83.47845194528611,55.284604435047314,4.173922597264306,0.8684085357488117,D,325,Incorrect
2,new_learn,16,515,A,18.22414019553419,35.29961852019339,0.9112070097767095,0.5544851110878088,A,709,Correct
2,new_learn,16,516,B,55.955096638618464,98.71632448332377,2.797754831930923,1.550632398930981,B,566,Incorrect
2,new_learn,16,517,D,53.22159729400913,25.746597412443123,2.6610798647004565,0.4044266064293265,D,9076,Incorrect
2,new_learn,16,518,A,40.95110993443172,61.27908276012397,2.047555496721586,0.9625695810896321,C,1463,Incorrect
2,new_learn,16,519,C,51.119212375407216,44.605073890824265,2.555960618770361,0.700654862241217,B,380,Incorrect
2,new_learn,16,520,B,66.16117085615818,92.63565068550415,3.308058542807909,1.4551173982704506,D,576,Incorrect
2,new_learn,16,521,D,52.81251514955579,51.4727217596408,2.64062575747779,0.808531622701795,A,674,Incorrect
2,new_learn,16,522,B,30.391524943778972,76.58714810743446,1.5195762471889487,1.2030281092685475,C,488,Incorrect
2,new_learn,16,523,C,86.01108433224476,61.29805207432205,4.300554216612238,0.9628675503802738,C,588,Incorrect
2,new_learn,16,524,B,40.44117531527218,97.38829642481451,2.022058765763609,1.5297717829691118,B,448,Correct
2,new_learn,16,525,C,63.89079139351617,30.26375903141944,3.1945395696758085,0.47538201521559537,B,252,Incorrect
2,new_learn,16,526,A,29.88779145716851,44.45083019931058,1.4943895728584256,0.6982320080006073,B,711,Incorrect
2,new_learn,16,527,C,78.6693543576803,48.84176826220286,3.933467717884015,0.7672047018043582,A,351,Incorrect
2,new_learn,16,528,C,99.63088607686224,42.350057106196914,4.981544303843112,0.6652331414196822,C,252,Incorrect
2,new_learn,16,529,A,30.27115202162264,33.7302604252025,1.513557601081132,0.5298336917774336,C,427,Incorrect
2,new_learn,16,530,C,72.40186661693605,47.23219620360539,3.620093330846802,0.7419216030307919,B,230,Incorrect
2,new_learn,16,531,A,45.7340436949616,56.625368999747536,2.28670218474808,0.8894692162820904,D,277,Incorrect
2,new_learn,16,532,D,64.03437555856245,22.570138822566395,3.201718777928122,0.35453091157738187,D,271,Incorrect
2,new_learn,16,533,D,33.91025738991155,28.76910954915743,1.6955128694955774,0.4519041160497647,D,253,Incorrect
2,new_learn,16,534,A,2.9295483692012922,60.400178918367196,0.14647741846006462,0.9487637918272575,D,249,Incorrect
2,new_learn,16,535,A,23.55446042111304,38.234679636681406,1.177723021055652,0.6005889432947878,D,357,Incorrect
2,new_learn,16,536,C,90.0944018906134,59.51923570908997,4.50472009453067,0.9349259682547815,D,310,Incorrect
2,new_learn,16,537,B,29.019567912649357,58.82828111953215,1.450978395632468,0.9240724789421866,D,292,Incorrect
2,new_learn,16,538,D,55.1471892911561,45.53636591668655,2.757359464557805,0.7152835631751955,D,639,Correct
2,new_learn,16,539,A,4.631914223960202,53.56291683164124,0.2315957111980101,0.841364330115626,A,556,Incorrect
2,new_learn,16,540,C,76.31404873709226,34.90766793769983,3.8157024368546133,0.5483283657351486,D,415,Correct
2,new_learn,16,541,A,11.132313313469785,27.4880342855484,0.5566156656734893,0.4317810328655161,A,647,Correct
2,new_learn,16,542,A,17.49506980155636,44.722105634468754,0.874753490077818,0.7024931925715687,A,495,Incorrect
2,new_learn,16,543,C,86.52760937579446,45.71508517575001,4.326380468789723,0.7180908787318393,D,733,Correct
2,new_learn,16,544,A,4.690191404469321,40.984962841278616,0.23450957022346602,0.6437902908490577,A,556,Correct
2,new_learn,16,545,D,54.28102307267076,26.05147650112303,2.7140511536335383,0.40921563595547616,B,592,Correct
2,new_learn,16,546,D,64.79294755809067,9.514294160128795,3.2396473779045336,0.14945018318776448,B,414,Correct
2,new_learn,16,547,A,15.95684990837117,28.298171431219703,0.7978424954185586,0.44450663739172197,B,291,Incorrect
2,new_learn,16,548,D,47.22757107023683,6.10476048291968,2.3613785535118414,0.09589335342532872,A,461,Incorrect
2,new_learn,16,549,B,45.72194513171434,82.6866439921673,2.286097256585717,1.298838766578937,C,493,Incorrect
2,new_learn,16,550,D,49.58366030204705,31.24519211321136,2.4791830151023526,0.49079833001433276,C,359,Correct
2,new_learn,16,551,C,62.92477711362644,65.94454532141955,3.146238855681322,1.035854495630454,D,3253,Incorrect
2,new_learn,16,552,C,66.23119320562611,59.49603424577072,3.311559660281306,0.9345615205212002,A,3644,Incorrect
2,new_learn,16,553,B,47.315592305153004,100.30299760476143,2.3657796152576505,1.5755558020407656,B,685,Correct
2,new_learn,16,554,D,53.32803788148138,35.64823959635694,2.6664018940740686,0.5599612381466186,B,204,Incorrect
2,new_learn,16,555,A,26.226316336032276,43.851298204028595,1.311315816801614,0.6888145814407576,B,240,Incorrect
2,new_learn,16,556,A,26.8922345235182,74.38107450131082,1.34461172617591,1.1683751860971656,B,235,Incorrect
2,new_learn,16,557,B,43.98862513896771,90.1009872341723,2.1994312569483854,1.415302997880317,B,448,Correct
2,new_learn,16,558,D,26.537864891425752,33.12824835775813,1.3268932445712875,0.5203773083351554,B,261,Incorrect
2,new_learn,16,559,B,36.4757170129339,97.97651391747812,1.8237858506466949,1.539011481737437,C,318,Correct
2,new_learn,16,560,A,24.36847392040385,34.314156033934395,1.2184236960201926,0.5390055025517109,C,279,Correct
2,new_learn,16,561,C,84.22750591586593,37.62154876494951,4.211375295793297,0.5909579060831776,C,285,Incorrect
2,new_learn,16,562,A,29.09616442885032,60.340679967365205,1.454808221442516,0.9478291844904365,D,276,Incorrect
2,new_learn,16,563,A,26.789059998611833,47.21072824766017,1.3394529999305917,0.7415843851673668,B,687,Incorrect
2,new_learn,16,564,C,86.56987797461865,63.98374891815271,4.328493898730932,1.0050543777520122,D,335,Incorrect
2,new_learn,16,565,C,63.450383012972,31.867335455836958,3.1725191506485997,0.5005709347876947,B,724,Correct
2,new_learn,16,566,A,36.328713112879484,36.20890844240341,1.8164356556439742,0.5687682037858,B,396,Incorrect
2,new_learn,16,567,C,96.02509960230225,55.846468414905395,4.801254980115113,0.877234274506006,C,622,Correct
2,new_learn,16,568,A,25.220810771189036,65.29270563974967,1.2610405385594519,1.0256154218541922,D,1198,Incorrect
2,new_learn,16,569,D,29.497427769792797,16.289995711429807,1.4748713884896398,0.2558826542701856,B,413,Incorrect
2,new_learn,16,570,A,2.1064267339039624,58.41233413488316,0.10532133669519812,0.9175387989859061,A,574,Correct
2,new_learn,16,571,B,52.39612334712758,64.75340711894151,2.619806167356379,1.0171441404988784,C,504,Incorrect
2,new_learn,16,572,A,32.56644916961235,34.94531834927345,1.6283224584806175,0.5489197770171703,D,268,Incorrect
2,new_learn,16,573,B,52.57059712525076,70.57759521567087,2.6285298562625377,1.1086302731879287,B,293,Correct
2,new_learn,16,574,A,27.144658655440118,63.04109269607191,1.3572329327720059,0.9902471684412631,C,686,Incorrect
2,new_learn,16,575,C,67.12884729381513,67.47496944915414,3.356442364690756,1.059894341613292,D,469,Incorrect
2,new_learn,16,576,C,73.07162670465077,41.346754943025175,3.6535813352325386,0.6494733078939267,C,183,Correct
2,new_learn,16,577,B,48.11893051074801,72.0237769652169,2.4059465255374004,1.1313468429885758,C,421,Correct
2,new_learn,16,578,C,100.95241804325582,56.702447057806936,5.047620902162791,0.8906799555868523,A,324,Incorrect
2,new_learn,16,579,A,12.39892567335762,32.508633617225044,0.6199462836678811,0.510644422750582,C,278,Incorrect
2,new_learn,16,580,C,70.2262322443971,28.88250680433044,3.511311612219855,0.4536853559687086,A,260,Incorrect
2,new_learn,16,581,C,52.34724998147793,40.55335843974058,2.617362499073897,0.6370106647634132,C,542,Correct
2,new_learn,16,582,A,33.58070321466054,56.906637854142076,1.6790351607330267,0.8938873771153379,C,589,Correct
2,new_learn,16,583,A,24.15984471583589,54.9353895484628,1.2079922357917945,0.8629230811377212,C,551,Incorrect
2,new_learn,16,584,D,43.60913933364506,26.667223891085442,2.180456966682253,0.41888777333934113,D,391,Correct
2,new_learn,16,585,C,95.16449301517343,50.78182206641773,4.758224650758672,0.79767899569881,B,477,Incorrect
2,new_learn,16,586,A,20.393535079233608,27.709015662674535,1.0196767539616802,0.4352522002203142,C,326,Incorrect
2,new_learn,16,587,D,61.81825985884232,32.75341023883108,3.090912992942116,0.5144893649316221,D,277,Incorrect
2,new_learn,16,588,C,75.77274008025195,50.74167002687942,3.7886370040125974,0.797048288936609,B,639,Incorrect
2,new_learn,16,589,D,53.73615492661885,42.12996415639747,2.6868077463309423,0.6617759294486979,C,524,Incorrect
2,new_learn,16,590,A,27.891831303768978,50.26424144952002,1.3945915651884488,0.7895488583803784,D,492,Incorrect
2,new_learn,16,591,A,7.380073843292369,68.04614345816765,0.3690036921646184,1.0688663219664831,A,551,Incorrect
2,new_learn,16,592,D,61.17810710324069,22.244413924516575,3.058905355162034,0.3494144368433588,C,4542,Incorrect
2,new_learn,16,593,B,59.28424236931609,97.16543059276968,2.964212118465804,1.5262710146656708,C,446,Incorrect
2,new_learn,16,594,C,63.024689590982774,40.249725347740544,3.151234479549139,0.6322412073073429,D,222,Incorrect
2,new_learn,16,595,B,62.407440025965926,98.50467011438958,3.1203720012982963,1.547307739878262,B,541,Incorrect
2,new_learn,16,596,A,45.949305896666075,61.22769599396224,2.297465294833304,0.961762399654305,B,303,Incorrect
2,new_learn,16,597,C,96.7749881853895,54.93810458292276,4.838749409269475,0.8629657287992896,B,252,Incorrect
2,new_learn,16,598,B,57.554259001291115,99.14564378586205,2.877712950064556,1.5573761307654739,B,284,Correct
2,new_learn,16,599,B,54.432767982449946,77.91670598658133,2.7216383991224973,1.2239127555967988,B,1156,Correct
2,new_learn,16,600,A,73.99903949005392,14.589643243210814,3.699951974502696,0.22917358015683528,C,957,Incorrect
2,new_learn,16,601,C,51.44339540301409,58.926876261616584,2.5721697701507042,0.9256212078124473,C,4488,Correct
2,new_learn,16,602,A,29.32453623431982,20.152451313533916,1.466226811715991,0.31655396499212063,C,1132,Incorrect
2,new_learn,16,603,A,43.91237884404835,-0.7785350841069203,2.1956189422024175,-0.012229200503961063,C,724,Incorrect
2,new_learn,16,604,D,86.03297114746101,73.87995784824959,4.301648557373051,1.1605036641179223,B,881,Incorrect
2,new_learn,16,605,A,58.40570851162761,44.35898873305824,2.9202854255813806,0.6967893656222409,C,629,Incorrect
2,new_learn,16,606,A,44.99081225051834,44.5449974639003,2.2495406125259167,0.6997111839338257,D,475,Incorrect
2,new_learn,16,607,C,42.43951233175257,59.26555919145754,2.121975616587628,0.9309412268338703,C,397,Correct
2,new_learn,16,608,C,55.255120039376976,80.32333685165132,2.7627560019688486,1.2617160248248305,C,720,Correct
2,new_learn,16,609,A,41.957583274306224,49.51703989671489,2.097879163715311,0.7778118438351609,C,1309,Incorrect
2,new_learn,16,610,D,76.8329684911363,31.868042690876248,3.8416484245568148,0.5005820440097136,C,397,Incorrect
2,new_learn,16,611,D,72.50176666693332,28.685892814228417,3.625088333346666,0.45059695063422117,D,373,Correct
2,new_learn,16,612,A,65.45084398184996,43.40010845687277,3.272542199092498,0.6817273094655587,D,502,Incorrect
2,new_learn,16,613,C,40.19305790145885,85.99964266328156,2.0096528950729424,1.3508792280115633,B,696,Incorrect
2,new_learn,16,614,A,49.71373610109868,7.8271421465680575,2.485686805054934,0.12294846133130626,C,597,Incorrect
2,new_learn,16,615,C,50.88280975622882,58.31248239914694,2.544140487811441,0.9159703315887208,C,749,Correct
2,new_learn,16,616,D,98.09249272000187,41.186988115877455,4.904624636000094,0.6469636964416537,B,1799,Incorrect
2,new_learn,16,617,B,32.87387189316666,48.97022693080195,1.643693594658333,0.7692225258521622,C,806,Incorrect
2,new_learn,16,618,C,59.797691664253236,96.82468599539747,2.989884583212662,1.5209186110463961,D,813,Incorrect
2,new_learn,16,619,B,33.29798479816903,38.5382699198036,1.6648992399084517,0.6053577283105775,C,302,Incorrect
2,new_learn,16,620,A,53.852318507044565,12.760229528532017,2.692615925352228,0.20043721672477868,C,526,Incorrect
2,new_learn,16,621,C,60.46322209024942,94.0856689624508,3.0231611045124707,1.4778942321025832,C,1030,Correct
2,new_learn,16,622,C,63.85838746143702,61.612568038457916,3.192919373071851,0.9678079555921033,D,612,Incorrect
2,new_learn,16,623,D,79.22641741589287,60.10876076591263,3.9613208707946432,0.9441862061928875,C,635,Incorrect
2,new_learn,16,624,A,48.76677082347395,4.813992883383673,2.4383385411736977,0.07561802338435847,C,487,Incorrect
2,new_learn,16,625,D,69.44936039912976,46.55521232839936,3.472468019956488,0.731287565186062,C,532,Incorrect
2,new_learn,16,626,C,59.529775316181585,74.5441756602605,2.9764887658090795,1.1709371731109073,C,241,Correct
2,new_learn,16,627,B,34.83748094028247,59.65856240610336,1.7418740470141234,0.9371145068937127,C,1069,Incorrect
2,new_learn,16,628,C,54.188928001552874,90.7001925813912,2.7094464000776437,1.4247152934643903,B,788,Incorrect
2,new_learn,16,629,C,56.07448789240269,85.92076073125814,2.8037243946201347,1.3496401535208347,C,423,Correct
2,new_learn,16,630,B,26.477994136045996,27.641223245376352,1.3238997068023,0.43418731941954875,D,837,Incorrect
2,new_learn,16,631,C,39.779622811674486,65.63931409414796,1.988981140583724,1.031059934724241,C,639,Correct
2,new_learn,16,632,D,91.55304282429319,56.77500591598378,4.577652141214659,0.8918197074658584,C,637,Incorrect
2,new_learn,16,633,D,86.42478758047773,62.66064511866612,4.321239379023886,0.984271111869993,C,526,Incorrect
2,new_learn,16,634,C,41.31923489083901,70.56311580381674,2.065961744541951,1.1084028311183827,C,613,Correct
2,new_learn,16,635,D,50.68957812154471,51.660091624554596,2.5344789060772355,0.8114748216573817,C,684,Incorrect
2,new_learn,16,636,B,23.38899688174891,24.20606496694994,1.1694498440874455,0.3802279793624359,C,446,Incorrect
2,new_learn,16,637,D,78.56707002525819,48.461910831930744,3.92835350126291,0.7612379152425862,D,405,Correct
2,new_learn,16,638,B,43.58833983387443,31.00351788940266,2.1794169916937216,0.4870021201839356,C,1526,Incorrect
2,new_learn,16,639,B,37.57543467613151,27.594423744836988,1.8787717338065755,0.4334521945841182,C,635,Incorrect
2,new_learn,16,640,A,42.37348940330606,29.021211482066466,2.118674470165303,0.45586412395167875,C,420,Incorrect
2,new_learn,16,641,C,37.96063942902957,53.9549833803503,1.8980319714514786,0.8475228970613394,C,366,Correct
2,new_learn,16,642,C,34.75663117545041,92.59738411267475,1.7378315587725206,1.4545163083500559,D,967,Incorrect
2,new_learn,16,643,B,6.291104202122732,43.32462022694375,0.3145552101061366,0.6805415431226712,B,270,Correct
2,new_learn,16,644,B,39.46082056471006,55.31917325205859,1.9730410282355029,0.8689515414566412,C,3758,Incorrect
2,new_learn,16,645,D,78.25864664837121,34.229249505539165,3.9129323324185608,0.5376717939224694,C,806,Incorrect
2,new_learn,16,646,D,62.65238940431413,53.73481400242238,3.1326194702157064,0.8440644845601206,C,454,Incorrect
2,new_learn,16,647,A,46.90248727488063,7.884308524575395,2.3451243637440315,0.12384642869720722,C,782,Incorrect
2,new_learn,16,648,C,53.43311961872156,81.7764034775193,2.671655980936078,1.2845407420098471,B,324,Incorrect
2,new_learn,16,649,D,74.87281297368547,24.836195751293992,3.7436406486842735,0.3901260505769162,D,207,Correct
2,new_learn,16,650,A,43.03030424804833,19.29083730052768,2.151515212402417,0.30301976372466854,D,653,Incorrect
2,new_learn,16,651,B,12.148903110527353,68.00144801652803,0.6074451555263677,1.0681642476109634,A,1236,Incorrect
2,new_learn,16,652,B,40.063425459380575,36.78707233256426,2.0031712729690287,0.577849980935301,C,1104,Incorrect
2,new_learn,16,653,A,38.25940089892186,7.877928046104866,1.912970044946093,0.12374620437576021,B,756,Incorrect
2,new_learn,16,654,D,50.23888916099614,41.41486899663405,2.5119444580498067,0.650543240946046,C,399,Incorrect
2,new_learn,16,655,A,28.947507564125587,13.048387508878259,1.4473753782062795,0.2049635916954238,D,445,Incorrect
2,new_learn,16,656,A,70.63852410391954,17.87694484778325,3.5319262051959766,0.2808103930121288,C,284,Incorrect
2,new_learn,16,657,B,41.067508342526736,59.361522776752885,2.053375417126337,0.9324486193067503,C,445,Incorrect
2,new_learn,16,658,C,44.420763108447694,97.74841472256296,2.221038155422385,1.535428507962261,D,1071,Incorrect
2,new_learn,16,659,C,27.344446803236615,67.56191550989874,1.3672223401618309,1.061260087141761,B,1453,Incorrect
2,new_learn,16,660,B,10.183599558285085,57.854557158450824,0.5091799779142542,0.9087772587283994,A,750,Incorrect
2,new_learn,16,661,D,57.92292216205448,66.51081923273989,2.8961461081027244,1.0447495054290716,C,1404,Incorrect
2,new_learn,16,662,B,35.767067793887435,29.288117133016012,1.7883533896943717,0.46005666811280227,D,759,Incorrect
2,new_learn,16,663,D,51.91458161165197,51.42505740564262,2.5957290805825983,0.807782912780001,C,683,Incorrect
2,new_learn,16,664,C,42.58292928028479,65.85114119493802,2.1291464640142395,1.0343873070426073,B,966,Incorrect
2,new_learn,16,665,B,29.377432687586715,58.21078083014676,1.4688716343793358,0.9143728070785732,A,398,Incorrect
2,new_learn,16,666,A,38.274074748839546,33.04645612257404,1.9137037374419774,0.5190925189092802,A,263,Correct
2,new_learn,16,667,B,32.158890135913886,51.32534532806746,1.6079445067956941,0.8062166391280797,A,296,Incorrect
2,new_learn,16,668,A,61.190620697044324,17.30414701604648,3.059531034852216,0.27181290571124683,A,621,Correct
2,new_learn,16,669,B,21.468670595138487,75.59239659584922,1.0734335297569244,1.1874025890638302,B,1622,Correct
2,new_learn,16,670,A,67.28353445632877,35.391325674276324,3.3641767228164383,0.5559256436955516,A,682,Correct
2,new_learn,16,671,C,26.35292772748588,62.43224958263906,1.3176463863742942,0.9806834831795164,B,1352,Incorrect
2,new_learn,16,672,A,67.94147997942187,11.670753693731188,3.397073998971093,0.1833237703304092,A,853,Correct
2,new_learn,16,673,D,50.647269613344335,53.51434071384725,2.532363480667217,0.8406012982416184,B,1790,Incorrect
2,new_learn,16,674,A,38.016574992615695,18.687297595268223,1.9008287496307847,0.2935393842037043,A,357,Correct
2,new_learn,16,675,D,85.91111300009054,37.007651479630496,4.295555650004527,0.5813148300750931,A,245,Incorrect
2,new_learn,16,676,B,21.43000557557661,53.61291671221035,1.0715002787788306,0.8421497264030073,A,350,Incorrect
2,new_learn,16,677,A,70.15859658351324,42.14762607484621,3.507929829175662,0.6620533622149323,A,485,Correct
2,new_learn,16,678,C,71.93534015054583,61.92903987349335,3.596767007527291,0.9727790835521805,A,294,Incorrect
2,new_learn,16,679,A,58.35269925639539,2.498926797907366,2.9176349628197693,0.03925305035082223,A,758,Correct
2,new_learn,16,680,C,56.58035368644112,62.26616369728209,2.829017684322056,0.9780746121930044,D,431,Incorrect
2,new_learn,16,681,D,86.84263492730067,63.88200260557927,4.342131746365033,1.0034561504114594,A,372,Incorrect
2,new_learn,16,682,B,8.130980408814725,67.31904504514974,0.4065490204407362,1.0574450868026137,A,661,Incorrect
2,new_learn,16,683,D,75.85270687069384,63.39926520082898,3.792635343534692,0.9958733289895767,A,558,Incorrect
2,new_learn,16,684,B,34.94806085503469,70.05926527669638,1.7474030427517346,1.1004883655458393,B,605,Correct
2,new_learn,16,685,C,75.41411299763328,68.67141344029963,3.7707056498816645,1.0786880398783636,B,526,Incorrect
2,new_learn,16,686,B,41.33147867324797,42.98045085461678,2.0665739336623985,0.675135343264206,C,324,Incorrect
2,new_learn,16,687,B,35.502691334852464,31.889096600091957,1.7751345667426233,0.5009127580423207,A,302,Incorrect
2,new_learn,16,688,C,45.574373929965276,93.9938538620467,2.278718696498264,1.4764520038779927,B,1759,Incorrect
2,new_learn,16,689,B,3.265243768769352,58.54516447427608,0.1632621884384676,0.9196252930779591,A,533,Incorrect
2,new_learn,16,690,C,41.07503229667637,92.63220807265336,2.0537516148338186,1.4550633218342448,A,1029,Incorrect
2,new_learn,16,691,D,67.6526004580499,54.52542396415688,3.3826300229024953,0.8564833567983204,B,1286,Incorrect
2,new_learn,16,692,B,35.080367352689876,60.28821537665144,1.7540183676344938,0.9470050726266368,C,413,Incorrect
2,new_learn,16,693,A,68.5836450935719,5.78178392188234,3.4291822546785955,0.0908200494681457,A,663,Correct
2,new_learn,16,694,C,58.9342597695706,93.18654445920555,2.94671298847853,1.4637708174322939,A,564,Incorrect
2,new_learn,16,695,B,-0.7540432948787164,45.074597150162475,-0.03770216474393582,0.7080301163523492,D,1311,Incorrect
2,new_learn,16,696,A,36.37649767293081,22.054997807520163,1.8188248836465406,0.34643909543522167,C,550,Incorrect
2,new_learn,16,697,B,37.2489131851535,30.095838525300678,1.8624456592576748,0.47274432607354644,B,709,Correct
2,new_learn,16,698,D,57.56834941362111,39.39301566166426,2.8784174706810552,0.6187840430271605,A,567,Incorrect
2,new_learn,16,699,C,24.368509932723907,75.25695312142464,1.2184254966361954,1.1821334552890956,B,371,Incorrect
2,new_learn,16,700,A,47.25453558764522,21.9098796564775,2.3627267793822613,0.34415958484913084,B,623,Incorrect
2,new_learn,16,701,B,26.303661799084573,54.96133267663372,1.3151830899542287,0.8633305948420856,C,653,Incorrect
2,new_learn,16,702,C,56.99657813702184,63.5747538210573,2.8498289068510925,0.9986298977900663,C,528,Correct
2,new_learn,16,703,D,70.44442605885446,58.84079372799601,3.522221302942723,0.9242690265363233,A,540,Incorrect
2,new_learn,16,704,A,42.81120695841599,47.59817252925595,2.1405603479207995,0.7476703457110498,C,581,Incorrect
2,new_learn,16,705,A,53.25981275749908,19.46279244587349,2.6629906378749535,0.3057208288314954,A,327,Correct
2,new_learn,16,706,D,92.37724260635562,54.7703690528389,4.618862130317781,0.8603309452540022,D,366,Correct
2,new_learn,16,707,C,34.421671497819354,77.43990992290291,1.7210835748909676,1.2164232605422356,A,311,Incorrect
2,new_learn,16,708,B,26.23661913886522,30.166473848300217,1.311830956943261,0.4738538631326428,A,445,Incorrect
2,new_learn,16,709,D,60.7756591540567,61.14184573703451,3.038782957702835,0.9604138669719401,A,851,Incorrect
2,new_learn,16,710,B,47.90331256088679,47.52181876949859,2.395165628044339,0.7464709836574114,B,325,Correct
2,new_learn,16,711,A,47.49283534680834,16.953128316272043,2.374641767340417,0.26629911686882674,C,583,Incorrect
2,new_learn,16,712,A,30.296420229999953,13.180138788442175,1.5148210114999978,0.20703313595531905,D,85,Incorrect
2,new_learn,16,713,B,28.631821225875854,72.99132255202223,1.4315910612937928,1.14654501352618,B,6359,Correct
2,new_learn,16,714,B,14.971919917263836,49.19860265348735,0.7485959958631918,0.7728098433153958,C,1621,Incorrect
2,new_learn,16,715,A,72.48791615156487,15.746118521611262,3.624395807578244,0.24733945135024057,A,1750,Correct
2,new_learn,16,716,C,54.22080122071898,71.81431744451976,2.711040061035949,1.1280566605313431,B,2199,Incorrect
2,new_learn,16,717,C,36.45131854083763,98.14795272194192,1.8225659270418817,1.5417044361806553,C,1789,Correct
2,new_learn,16,718,B,15.577478082693924,63.716990332021034,0.7788739041346961,1.0008641436796457,D,926,Incorrect
2,new_learn,16,719,C,43.069209719060005,50.6214648604187,2.1534604859530004,0.7951601105972261,B,887,Incorrect
2,new_learn,16,720,C,57.92284976079109,74.12284060676241,2.8961424880395543,1.1643188575670598,A,492,Incorrect
2,new_learn,16,721,B,0.17985840006079812,45.832137352016865,0.008992920003039907,0.7199295300170727,A,1652,Incorrect
2,new_learn,16,722,A,48.98499787507002,9.177763063704699,2.449249893753501,0.14416396508661217,B,1280,Incorrect
2,new_learn,16,723,A,28.78973327320657,9.54020283936225,1.4394866636603285,0.14985715576948463,C,557,Incorrect
2,new_learn,16,724,D,66.09171454752165,62.406243642479886,3.3045857273760824,0.9802749828267479,A,775,Incorrect
2,new_learn,16,725,D,99.97777011243083,51.80320158705375,4.998888505621542,0.8137227876915958,A,621,Incorrect
2,new_learn,16,726,D,77.65260997110315,41.562765918276625,3.8826304985551574,0.6528664003586504,C,493,Incorrect
2,new_learn,16,727,D,66.13371180332236,53.96871135312827,3.3066855901661176,0.8477385355534791,B,424,Incorrect
2,new_learn,16,728,D,56.292736778950854,55.13244392342287,2.8146368389475422,0.8660184040213825,D,428,Correct
2,new_learn,16,729,A,37.688979564518334,24.382493973120663,1.8844489782259166,0.3829993197107664,C,1310,Incorrect
2,new_learn,16,730,A,48.233814988864026,-1.760646988816461,2.4116907494432014,-0.027656178228153926,A,1122,Correct
2,new_learn,16,731,A,43.229046959192054,21.77497043001798,2.1614523479596026,0.3420404356753973,B,1030,Incorrect
2,new_learn,16,732,C,59.903636574952905,82.69865031954117,2.9951818287476453,1.2990273615283086,D,582,Incorrect
2,new_learn,16,733,D,70.26576761268467,32.17042451735266,3.5132883806342337,0.5053318466329004,B,720,Incorrect
2,new_learn,16,734,A,48.54441264620464,27.444916285362623,2.4272206323102323,0.43110373690241055,B,965,Incorrect
2,new_learn,16,735,B,23.801980132263967,26.983460607591056,1.1900990066131982,0.4238552080661882,B,724,Correct
2,new_learn,16,736,C,54.95383224601518,96.30902017164274,2.747691612300759,1.51281855122832,C,975,Correct
2,new_learn,16,737,A,61.668521633662536,3.263176329170058,3.0834260816831267,0.05125785391544382,D,733,Incorrect
2,new_learn,16,738,B,15.489741136578246,42.36805953178521,0.7744870568289123,0.665515922859557,B,884,Correct
2,new_learn,16,739,C,36.743079280827295,78.34132984144956,1.8371539640413648,1.230582731511764,B,702,Incorrect
2,new_learn,16,740,C,68.1722446110154,80.39019410935877,3.4086122305507702,1.2627662161730948,A,1022,Incorrect
2,new_learn,16,741,D,57.334525944668776,56.37032294860822,2.866726297233439,0.8854629622791585,D,4284,Correct
2,new_learn,16,742,A,30.410401602382098,39.42917661228809,1.5205200801191048,0.6193520579112938,B,792,Incorrect
2,new_learn,16,743,D,82.49630054185764,37.45798836711291,4.124815027092882,0.5883887053618693,C,685,Incorrect
2,new_learn,16,744,D,72.49833524762778,76.60269830096345,3.624916762381389,1.2032723711373108,D,939,Correct
2,new_learn,16,745,C,59.62995476334701,80.33514173278722,2.9814977381673504,1.2619014554640957,C,712,Correct
2,new_learn,16,746,C,41.96277642846574,71.94578897823907,2.098138821423287,1.130121810553787,D,3508,Incorrect
2,new_learn,16,747,A,30.832833562857214,25.409570239946696,1.5416416781428606,0.3991325959834519,B,487,Incorrect
2,new_learn,16,748,A,30.78350779529154,17.803724934576167,1.539175389764577,0.27966025730498956,B,661,Incorrect
2,new_learn,16,749,B,6.207543421522164,35.30292664355321,0.3103771710761082,0.5545370749680306,A,779,Incorrect
2,new_learn,16,750,A,44.522747193623566,28.718545917218066,2.226137359681178,0.45110986437656714,B,365,Incorrect
2,new_learn,16,751,B,40.3897581180287,63.43678015085226,2.019487905901435,0.9964626124465413,B,281,Correct
2,new_learn,16,752,C,34.472895367188734,63.408581264951366,1.7236447683594367,0.9960196653826131,B,238,Incorrect
2,new_learn,16,753,C,26.58619036661692,77.09473786541558,1.3293095183308459,1.2110013105421022,B,291,Incorrect
2,new_learn,16,754,C,47.66608193084643,52.54131088681696,2.3833040965423216,0.825316981460008,B,264,Incorrect
2,new_learn,16,755,A,55.478243725446674,21.84819299460095,2.7739121862723333,0.3431906130302516,B,258,Incorrect
2,new_learn,16,756,A,36.077007874735024,38.20492255829106,1.8038503937367512,0.6001215202004707,B,254,Incorrect
2,new_learn,16,757,A,57.644241750742246,45.44471790098336,2.882212087537112,0.7138439595109495,B,279,Incorrect
2,new_learn,16,758,B,22.37724263364913,61.934103382707505,1.1188621316824565,0.9728586209689234,C,438,Incorrect
2,new_learn,16,759,D,69.18295830780347,33.81850495021066,3.4591479153901736,0.5312198335348592,C,917,Incorrect
2,new_learn,16,760,B,37.04629689950929,38.53498034705238,1.8523148449754643,0.6053060558226341,C,270,Incorrect
2,new_learn,16,761,D,59.484485519665796,67.81154565446766,2.9742242759832895,1.0651812682832222,D,300,Correct
2,new_learn,16,762,A,56.543584830515385,47.48231913950971,2.8271792415257693,0.7458505249204486,D,238,Incorrect
2,new_learn,16,763,C,46.29574583010338,51.93991517289929,2.314787291505169,0.8158702796762872,D,248,Incorrect
2,new_learn,16,764,B,25.83698396326553,38.93765980686996,1.2918491981632767,0.6116313299862061,C,283,Incorrect
2,new_learn,16,765,A,57.489587746789795,3.9154256086002306,2.8744793873394894,0.061503361638279144,C,358,Incorrect
2,new_learn,16,766,A,29.63016149710229,13.028310557896791,1.4815080748551146,0.20464822368687446,D,319,Incorrect
2,new_learn,16,767,B,8.938124594923973,37.8144187878115,0.4469062297461987,0.5939875013177822,B,979,Correct
2,new_learn,16,768,A,33.46695468016934,6.841056903957007,1.673347734008467,0.10745907056130533,B,974,Incorrect
2,new_learn,16,769,B,11.416940947397967,29.412788056576726,0.5708470473698983,0.46201499440067517,C,550,Incorrect
2,new_learn,16,770,D,98.82334816735312,55.123652606646,4.941167408367656,0.8658803103403746,D,53,Correct
2,new_learn,16,771,D,73.17372757157034,44.66843655439753,3.658686378578517,0.7016501606331853,D,302,Correct
2,new_learn,16,772,C,45.79173010341451,84.78450682675917,2.2895865051707256,1.3317919189259013,D,88,Incorrect
2,new_learn,16,773,B,34.63961403566469,66.11958054025031,1.7319807017832347,1.038603942418445,D,428,Incorrect
2,new_learn,16,774,B,11.53196746778613,34.710568761983865,0.5765983733893065,0.5452323391228594,A,278,Incorrect
2,new_learn,16,775,D,57.857839040414525,54.0116633617329,2.8928919520207264,0.8484132241269253,D,806,Correct
2,new_learn,16,776,A,24.22109187993837,25.23013214238449,1.2110545939969186,0.3963139889380741,B,310,Incorrect
2,new_learn,16,777,A,60.19069201449034,39.97491813313947,3.0095346007245167,0.6279245456746219,D,419,Incorrect
2,new_learn,16,778,C,28.97163300235134,90.16215307698728,1.4485816501175668,1.416263788692508,B,304,Incorrect
2,new_learn,16,779,A,56.244754485699616,11.345520307874551,2.812237724284981,0.1782150162518625,B,421,Incorrect
2,new_learn,16,780,A,54.52260115931991,17.71877745473256,2.7261300579659955,0.27832590541190133,C,1053,Incorrect
2,new_learn,16,781,D,75.57931943548567,73.01563588933132,3.7789659717742836,1.1469269265355526,D,278,Correct
2,new_learn,16,782,C,70.75063644889896,80.51844240774065,3.5375318224449477,1.2647807357332546,D,392,Incorrect
2,new_learn,16,783,B,38.138560313284046,51.247567850098235,1.9069280156642023,0.8049949133610653,C,475,Incorrect
2,new_learn,16,784,B,45.79749464743445,45.24928503695691,2.2898747323717226,0.7107741072614719,A,319,Incorrect
2,new_learn,16,785,A,65.96395940658743,28.833331567621745,3.2981979703293716,0.4529129131567957,D,884,Incorrect
2,new_learn,16,786,B,27.279082197691746,46.70302910301041,1.3639541098845873,0.7336094656520391,C,212,Incorrect
2,new_learn,16,787,B,33.3584714373644,26.097998857316817,1.6679235718682202,0.4099464074177066,B,207,Correct
2,new_learn,16,788,A,46.9429917529579,29.213764522269248,2.347149587647895,0.458888740034316,B,260,Incorrect
2,new_learn,16,789,C,63.44384354138941,87.73962550664304,3.1721921770694705,1.378210814601947,B,253,Incorrect
2,new_learn,16,790,A,49.649440625006676,37.62520411835627,2.4824720312503334,0.5910153242402225,B,301,Incorrect
2,new_learn,16,791,D,56.697529650662744,34.82315460370317,2.8348764825331374,0.5470008333890773,C,252,Incorrect
2,new_learn,16,792,D,77.02311989075531,49.451309747867086,3.8511559945377654,0.7767793570714627,D,127,Correct
2,new_learn,16,793,D,92.03436351652107,56.358041808041776,4.601718175826053,0.8852700505742525,D,364,Correct
2,new_learn,16,794,D,88.36764149788061,66.24944366933518,4.418382074894031,1.0406438276799712,D,1038,Correct
2,new_learn,16,795,C,66.7963348719374,75.16874621159731,3.33981674359687,1.1807479043895486,D,380,Incorrect
2,new_learn,16,796,C,42.50857358595645,98.34675157917417,2.1254286792978223,1.54482716132777,D,334,Incorrect
2,new_learn,16,797,D,79.5492914986524,29.429245625346844,3.9774645749326196,0.462273509286396,C,413,Incorrect
2,new_learn,16,798,B,26.192800619870756,63.7445316231522,1.3096400309935379,1.001296761269086,A,973,Incorrect
2,new_learn,16,799,C,47.86902955474861,94.97293058796386,2.3934514777374303,1.491831305125203,B,1367,Incorrect
2,new_learn,16,800,A,38.96585211075268,10.654691337696338,1.948292605537634,0.16736350016386808,C,596,Incorrect
2,new_learn,16,801,B,25.044919400207878,66.97479817964631,1.2522459700103938,1.0520376696841796,D,1782,Incorrect
2,new_learn,16,802,C,39.3166200123107,70.56305993219394,1.9658310006155348,1.1084019534889837,D,1751,Incorrect
2,new_learn,16,803,A,58.58725401640526,42.537305807342015,2.929362700820263,0.6681744371392406,B,741,Incorrect
2,new_learn,16,804,D,97.47275664130999,56.65656246028709,4.873637832065499,0.889959202014446,D,436,Correct
2,new_learn,16,805,B,8.445205620580914,35.51396427950036,0.4222602810290457,0.5578520464016433,B,942,Correct
2,new_learn,16,806,D,66.2187200242786,51.70212820665582,3.3109360012139297,0.8121351307449378,D,472,Correct
2,new_learn,16,807,D,79.3371129533749,46.27580524176566,3.966855647668745,0.7268986489324152,D,532,Correct
2,new_learn,16,808,B,16.234046382249,64.82765937208202,0.8117023191124502,1.018310492163772,B,688,Correct
2,new_learn,16,809,B,8.356529894756946,49.67473620865974,0.4178264947378473,0.7802889317106816,B,497,Correct
2,new_learn,16,810,C,27.255974862909664,60.79815642684428,1.3627987431454833,0.9550152079118853,D,591,Incorrect
2,new_learn,16,811,D,55.51658192916342,41.73829483619511,2.775829096458171,0.6556236021537767,D,300,Correct
2,new_learn,16,812,D,63.08719797350602,41.15758746628214,3.154359898675301,0.6465018721177566,C,597,Incorrect
2,new_learn,16,813,C,51.76229952795301,81.65026336638094,2.5881149763976503,1.2825593377774709,C,924,Correct
2,new_learn,16,814,A,45.04900813426106,15.080906148382423,2.2524504067130526,0.2368903198261768,D,863,Incorrect
2,new_learn,16,815,B,4.783094637303002,58.8899822779228,0.23915473186515007,0.9250416784717768,A,652,Incorrect
2,new_learn,16,816,C,38.89282967031106,75.91692321384373,1.944641483515553,1.1925002412587595,C,1702,Correct
2,new_learn,16,817,C,51.0930839834609,53.15112115097312,2.554654199173045,0.8348958586897911,D,517,Incorrect
2,new_learn,16,818,B,49.134300007510376,41.62576953236156,2.4567150003755187,0.6538560588144446,A,822,Incorrect
2,new_learn,16,819,A,44.840944211339526,37.3604676284894,2.242047210566976,0.586856853181708,C,798,Incorrect
2,new_learn,16,820,C,28.425075456935094,77.30374565140619,1.4212537728467547,1.214284397167158,D,446,Incorrect
2,new_learn,16,821,D,100.07513758001487,50.46631863107471,5.003756879000743,0.79272307932553,D,635,Correct
2,new_learn,16,822,D,60.09219949272661,52.09652559001461,3.00460997463633,0.8183303103557127,D,1183,Correct
2,new_learn,16,823,D,59.69575610949059,68.2123138880407,2.9847878054745296,1.0714765209751482,D,925,Correct
2,new_learn,16,824,C,64.41926471081213,85.39386870273191,3.2209632355406064,1.3413637528905695,D,1166,Incorrect
2,new_learn,16,825,B,39.17656823996784,36.81225233064679,1.9588284119983923,0.5782455074202685,C,876,Incorrect
2,new_learn,16,826,D,73.01153727685963,56.62502102216057,3.650576863842981,0.8894637502629362,D,517,Correct
2,new_learn,16,827,A,37.67621622711463,3.397264529903616,1.8838108113557315,0.05336410644723191,B,1022,Incorrect
2,new_learn,16,828,D,60.41800338710903,29.65362116579549,3.0209001693554516,0.4657979920339895,D,471,Correct
2,new_learn,16,829,B,0.6530767825219606,48.773203695519264,0.032653839126098025,0.7661276921094093,B,1342,Correct
2,new_learn,16,830,C,59.05574276643546,86.14250332812605,2.952787138321773,1.3531232780873756,D,1019,Incorrect
2,new_learn,16,831,D,77.0562997941616,39.343019806682896,3.85281498970808,0.6179987099735637,D,888,Correct
2,new_learn,16,832,A,55.59717960336232,25.135833984900074,2.779858980168116,0.3948327569440737,C,677,Incorrect
2,new_learn,16,833,B,27.480139752794894,35.092819365390994,1.3740069876397447,0.55123671756033,B,623,Correct
2,new_learn,16,834,C,57.259142619375744,65.44659632232342,2.862957130968787,1.0280327310433401,C,1885,Correct
2,new_learn,16,835,B,12.960990844303499,69.5450107637299,0.6480495422151749,1.0924104745457848,B,949,Correct
2,new_learn,16,836,B,27.388869953541953,62.272959812798526,1.3694434976770975,0.9781813653259015,B,613,Correct
2,new_learn,16,837,D,82.2095161543801,60.933171785792744,4.110475807719005,0.9571360242108569,D,716,Correct
2,new_learn,16,838,B,47.07371593872618,46.89491272849354,2.3536857969363094,0.7366235665928489,C,789,Incorrect
2,new_learn,16,839,B,5.049362807349926,67.56918439520844,0.2524681403674963,1.0613742665252048,B,630,Correct
2,new_learn,16,840,D,49.518034998057885,58.35987578985123,2.4759017499028944,0.9167147852290473,C,957,Incorrect
2,new_learn,16,841,A,71.04771347877043,29.68575457738321,3.552385673938522,0.4663027424828833,D,663,Incorrect
2,new_learn,16,842,A,30.276561118354888,36.31324667006343,1.5138280559177444,0.5704071448333263,C,562,Incorrect
2,new_learn,16,843,B,39.34067709134493,62.55697342029261,1.9670338545672466,0.9826426406400159,D,703,Incorrect
2,new_learn,16,844,B,48.5258558831183,46.02436871171144,2.426292794155915,0.7229490931541028,C,911,Incorrect
2,new_learn,16,845,C,60.23437333107921,76.25352196549989,3.0117186665539606,1.1977875220858119,D,662,Incorrect
2,new_learn,16,846,B,6.449525859955951,39.67198574472232,0.3224762929977976,0.6231660948446931,A,422,Incorrect
2,new_learn,16,847,B,15.171769842972955,51.58079916800951,0.7585884921486478,0.810229298662546,B,429,Correct
2,new_learn,16,848,D,78.98633959337471,54.92645562864896,3.9493169796687355,0.8627827474534465,D,6552,Correct
2,new_learn,16,849,C,57.34547184739773,71.61192508383614,2.8672735923698864,1.1248774887640114,C,3429,Correct
2,new_learn,16,850,A,53.93997200365367,-0.9184570420859721,2.6969986001826833,-0.014427089480275507,C,563,Incorrect
2,new_learn,16,851,A,47.49812362935398,38.742873759715785,2.374906181467699,0.6085716379123993,C,735,Incorrect
2,new_learn,16,852,B,37.229130309794215,49.499015563144226,1.8614565154897107,0.7775287182655036,C,503,Incorrect
2,new_learn,16,853,B,1.227057343457492,43.91861321515778,0.0613528671728746,0.6898719631629564,A,678,Incorrect
2,new_learn,16,854,B,15.918963543086562,48.188900010276484,0.7959481771543281,0.7569494712842886,B,614,Correct
2,new_learn,16,855,B,0.9524961203238149,47.12116065014713,0.04762480601619075,0.7401774606356333,B,781,Correct
2,new_learn,16,856,A,54.86655290746803,33.0503415163475,2.7433276453734017,0.5191535505319553,C,894,Incorrect
2,new_learn,16,857,C,48.56848055752581,87.20357740205918,2.4284240278762907,1.36979059066529,D,652,Incorrect
2,new_learn,16,858,D,84.41723122109671,53.95823582622598,4.220861561054836,0.8475739863616857,C,1598,Incorrect
2,new_learn,16,859,A,48.64004255877538,35.09850307768953,2.4320021279387687,0.5513259971043409,C,659,Incorrect
2,new_learn,16,860,A,63.63723348309177,37.41992981118349,3.181861674154588,0.5877908829632987,D,263,Incorrect
2,new_learn,16,861,B,32.956689663042305,31.99296820893296,1.6478344831521152,0.5025443694585779,C,369,Incorrect
2,new_learn,16,862,C,64.93099373094671,80.83932970870832,3.2465496865473358,1.2698212216700058,B,316,Incorrect
2,new_learn,16,863,C,67.2005613495751,62.05510458162123,3.360028067478755,0.974759303356838,D,677,Incorrect
2,new_learn,16,864,D,59.375667209315814,42.187080049802866,2.9687833604657907,0.6626731038043261,A,310,Incorrect
2,new_learn,16,865,D,80.90083200150517,48.85153716342286,4.045041600075258,0.7673581513458902,C,242,Incorrect
2,new_learn,16,866,D,90.3905817060778,56.9185796084827,4.51952908530389,0.8940749577538754,D,126,Correct
2,new_learn,16,867,A,58.394554422126696,24.127216543207965,2.9197277211063346,0.3789894312185613,D,303,Incorrect
2,new_learn,16,868,D,70.47614365800332,58.42402140592963,3.523807182900166,0.9177223822102067,D,588,Correct
2,new_learn,16,869,D,52.08640264378609,50.68485644264963,2.6043201321893044,0.796155863242407,D,365,Correct
2,new_learn,16,870,A,55.11193595567916,26.040387499847704,2.7555967977839577,0.4090414503307651,D,312,Incorrect
2,new_learn,16,871,B,26.880503155067345,36.279088774296106,1.3440251577533673,0.5698705938613029,B,547,Correct
2,new_learn,16,872,C,36.1103549209472,84.3411127285593,1.8055177460473602,1.3248271007181525,D,342,Incorrect
2,new_learn,16,873,A,63.00538520352031,25.186602802745927,3.1502692601760156,0.3956302316699535,D,476,Incorrect
2,new_learn,16,874,A,67.5131143097764,39.822264548172065,3.37565571548882,0.6255266687692331,D,478,Incorrect
2,new_learn,16,875,C,51.07889778859506,79.32968294466676,2.5539448894297525,1.2461077457528629,C,1327,Correct
2,new_learn,16,876,D,58.959655668627704,60.376570954133165,2.947982783431385,0.9483929587922382,C,500,Incorrect
2,new_learn,16,877,A,62.498310006068856,19.24155466512196,3.124915500303443,0.30224563389796777,D,415,Incorrect
2,new_learn,16,878,C,41.5905462713409,83.95034633751297,2.079527313567045,1.3186889566012476,D,312,Incorrect
2,new_learn,16,879,C,36.51567039381344,94.39159542438969,1.8257835196906718,1.4826997137294131,C,494,Correct
2,new_learn,16,880,B,22.1630513881623,69.22739765377781,1.1081525694081151,1.0874214194812384,B,660,Correct
2,new_learn,16,881,C,68.72844086270992,77.63517961514339,3.436422043135496,1.2194905496952926,D,502,Incorrect
2,new_learn,16,882,A,50.0238677870717,40.22070527393561,2.501193389353585,0.6317853610539818,C,654,Incorrect
2,new_learn,16,883,A,72.37644420752967,37.42776904169899,3.618822210376484,0.5879140213082851,D,454,Incorrect
2,new_learn,16,884,B,36.80360909266139,50.53487786077286,1.8401804546330696,0.7938000051873075,D,477,Incorrect
2,new_learn,16,885,A,72.21239328047703,28.241113304744292,3.6106196640238517,0.4436103704369082,D,589,Incorrect
2,new_learn,16,886,B,33.58253065439668,67.92998067926456,1.679126532719834,1.0670416413023707,D,387,Incorrect
2,new_learn,16,887,D,79.55228439468259,60.9684985935632,3.9776142197341295,0.9576909364096887,D,541,Correct
2,new_learn,16,888,C,58.23184393459397,84.61984613270036,2.911592196729698,1.3292054347919506,D,488,Incorrect
2,new_learn,16,889,C,37.719202575923376,95.16887237092078,1.8859601287961687,1.494909151454547,C,636,Correct
2,new_learn,16,890,A,45.55293420020603,12.570601729710909,2.2776467100103015,0.19745855022631467,D,532,Incorrect
2,new_learn,16,891,C,39.796542627058784,98.54556426304858,1.9898271313529392,1.5479501036632715,C,528,Correct
2,new_learn,16,892,C,54.21462509358702,76.89934376765041,2.710731254679351,1.2079320672316327,D,902,Incorrect
2,new_learn,16,893,C,48.71122131155813,57.421753650423355,2.435561065577906,0.9019787971220645,C,356,Correct
2,new_learn,16,894,B,21.0839051284786,25.770456681928675,1.05419525642393,0.40480138695800566,D,279,Incorrect
2,new_learn,16,895,A,66.69500709897287,21.36014506039091,3.334750354948643,0.3355243740066819,D,1286,Incorrect
